File: 02-Raw_data/LFMO/IMS_LMFO_A2.uxd
;content of C:\DATA XRD\IMS_LMFO_220510_C4_144.raw - (Diffrac Plus V4 file)
_FILEVERSION = 3
_SAMPLE = IMS_LMFO_220510_C4_144
_+SAMPLE
_USER = Lab Manager
_GONIOMETER_CODE = 20
_STAGE_CODE = 7
; Goniometer : D8 theta/2theta, stage : Chi drive
_SAMPLE_CHANGER_CODE = 0
_ATTACHMENTS_CODE = 0
_GONIOMETER_RADIUS = 217.5
_FIXED_DIVSLIT = 2
_MONOCHROMATOR = 0
; Incident beam monochromator : None
_SOLLER_SLITS_2 = 2
_BETA_FILTER = N
_ANALYZER_CODE = 0
; Received beam analyzer : None
_DATEMEASURED = 17-May-2022 10:33:12
_RUNTIME = 1816.651
_WL_UNIT = A
_WL1 = 1.5406
_WL2 = 1.54439
_WL3 = 1.39222
_WLRATIO = 0.5
_ANODE = Cu
_V4_INF_USER = Lab Manager
_V4_INF_SAMPLEID = IMS_LMFO_220510_C4_144
_V4_INF_CREATOR = BrmlToV4Converter
_V4_INF_CREATOR_VERSION = 7.5.0.0

; Data for range 1
_DRIVE = COUPLED
_STEPTIME = 86.4
_STEPSIZE = 0.01973
_STEPMODE = C
_START = 5
_THETA = 2.5
_2THETA = 5
_PHI = 101.109
_DETECTORSLIT = out
_TIMESTARTED = 0
_ROTATION_SPEED = 15
_KV = 40
_MA = 40
_RANGE_WL = 1.5406
_3DPLANE = 0
_V4_PSD2THETA = 9999
_V4_PSDCHANNEL1 = 0
_V4_PSDAPERTURE = 3.788144
_V4_PSDTYPE = 5
_V4_PSDFIXED = 0
_V4_COUNTERS_MASK = 1
_V4_DRIVES_MASK = 0
_V4_ENCODERS_MASK = 0
_COUNTS = 1
; Cnt2_D1
341
347
338
336
346
311
321
312
296
306
288
290
302
248
252
281
295
270
223
259
271
239
302
276
249
254
231
228
225
235
228
221
229
234
242
211
200
231
220
216
197
205
187
186
193
193
182
182
184
169
172
161
171
188
154
162
157
182
154
153
147
155
124
156
154
149
150
139
143
155
116
138
142
112
133
126
113
128
136
112
123
135
137
119
122
118
122
118
116
117
105
96
119
114
102
103
104
114
99
100
101
105
122
100
100
98
117
100
102
87
108
98
86
111
75
95
109
85
88
85
90
105
75
103
98
89
85
90
87
93
83
84
72
89
74
85
87
59
75
69
63
79
87
87
80
72
64
79
67
64
62
82
82
63
73
59
64
70
76
80
63
77
80
62
56
64
62
68
87
73
71
66
72
56
56
66
64
52
55
62
52
63
70
49
60
55
56
53
64
67
55
63
48
50
62
42
58
54
43
49
64
57
55
57
48
56
51
53
60
49
40
52
50
46
46
48
56
47
64
66
65
83
80
84
105
131
162
552
3223
5298
906
305
145
112
96
90
80
58
61
53
61
66
52
65
35
42
48
37
52
42
30
59
37
43
45
41
37
32
28
37
38
25
35
41
42
41
31
32
33
26
40
34
36
48
36
46
41
41
37
52
42
49
42
39
34
37
27
36
38
44
42
24
44
38
34
34
39
31
33
28
40
34
35
30
28
27
38
30
21
31
20
40
24
31
28
42
47
32
36
31
27
28
29
32
31
27
29
32
30
27
26
22
36
29
28
27
29
41
22
25
21
33
31
27
38
24
25
22
29
31
25
16
31
25
28
33
36
27
39
45
30
20
34
29
38
23
40
31
28
42
34
35
32
39
26
29
40
30
28
31
28
17
21
18
25
32
27
28
28
34
27
20
31
36
29
29
29
36
24
28
43
21
30
28
36
35
30
23
26
30
36
35
36
37
26
27
36
43
37
26
28
34
34
33
43
46
45
45
42
79
203
118
57
49
35
36
19
32
33
35
29
22
31
29
32
21
25
24
31
35
27
28
34
37
34
31
28
30
39
21
21
24
27
31
33
27
28
36
35
22
43
30
26
28
38
27
32
35
34
30
35
29
39
43
38
32
39
27
32
33
40
32
43
36
37
33
39
37
45
44
47
48
29
46
61
53
42
53
59
72
68
76
92
101
96
85
80
81
107
165
418
2218
2911
1102
417
209
125
72
64
60
48
36
36
41
36
36
32
32
39
46
32
40
48
39
52
41
44
50
91
420
501
197
91
66
42
41
31
33
25
23
27
27
30
37
29
29
21
35
35
22
20
23
21
32
31
30
30
26
25
35
15
26
24
27
28
29
25
25
23
31
28
25
23
16
29
20
26
23
23
25
27
27
34
21
26
29
23
22
38
26
27
31
27
20
24
27
36
40
34
45
24
20
38
30
26
30
30
26
25
33
34
33
32
29
37
40
38
42
30
52
46
67
75
69
52
60
62
79
71
114
207
852
2412
1630
676
376
191
131
122
99
66
64
48
46
34
45
35
33
30
34
32
21
31
19
24
34
23
29
23
33
30
32
26
25
21
23
35
21
18
31
28
19
19
22
31
30
24
27
23
24
24
30
25
21
30
24
22
24
23
23
26
24
32
34
24
40
30
24
27
30
37
171
328
234
133
71
67
37
43
37
30
27
30
27
23
33
24
20
30
26
31
24
27
27
27
20
23
23
18
22
25
23
14
24
28
22
24
33
28
20
16
29
23
35
20
15
27
21
26
22
24
25
19
29
15
22
16
18
26
16
26
22
20
25
18
30
28
18
24
25
31
25
20
18
19
19
28
25
22
22
23
18
14
24
26
19
17
18
22
28
16
25
17
18
22
25
25
25
26
28
18
24
28
24
27
28
22
20
22
50
22
29
28
28
23
24
23
25
27
24
23
31
17
34
32
22
19
22
19
24
20
32
26
27
28
21
22
25
26
27
21
18
27
23
29
25
19
22
28
28
32
21
20
30
39
36
26
23
33
30
36
60
38
53
41
34
49
75
171
635
785
540
289
171
104
69
69
44
31
36
40
35
33
29
27
22
20
22
26
19
33
18
20
27
23
23
26
15
19
14
29
23
16
19
24
19
17
21
18
18
12
26
24
23
15
22
25
16
17
25
17
13
20
11
27
15
21
16
9.000000
21
26
21
33
25
25
17
24
36
26
40
27
38
29
30
32
43
49
37
48
44
34
43
39
51
50
53
52
55
57
59
64
80
62
105
351
1010
994
710
427
251
161
106
86
77
47
49
50
28
35
33
33
29
31
17
22
32
23
28
28
27
20
21
17
37
27
13
25
18
25
19
24
20
25
21
13
11
19
31
28
23
25
30
33
28
31
30
43
30
54
118
293
340
266
162
109
72
65
46
36
33
29
23
30
36
27
34
25
24
25
18
13
22
16
24
17
15
13
25
24
18
13
13
22
22
18
20
25
14
20
24
21
18
13
19
23
20
18
13
19
18
17
18
20
16
18
17
20
16
18
18
24
20
18
21
13
18
19
13
17
20
19
16
16
20
11
18
18
12
16
14
18
18
16
23
14
16
20
14
26
30
28
18
11
27
18
21
16
14
21
14
16
16
21
14
18
13
19
16
15
21
21
14
25
23
10
14
16
19
22
24
21
16
20
21
21
20
19
26
18
25
23
22
26
25
41
43
29
24
26
38
54
143
125
132
84
83
63
41
24
32
30
22
30
35
29
34
27
60
113
161
164
118
80
56
38
29
39
24
28
30
16
26
20
13
23
22
25
24
18
13
17
16
24
10
19
12
18
19
16
15
32
13
21
14
21
20
23
16
18
15
23
12
22
22
21
27
14
16
9.000000
22
21
21
18
17
17
17
22
23
17
20
26
23
35
21
24
50
107
174
177