File: 02-Raw_data/LFMO/IMS_LMFO_B4.uxd
;content of C:\DATA XRD\IMS_LMFO_220510_B4_140.raw - (Diffrac Plus V4 file)
_FILEVERSION = 3
_SAMPLE = IMS_LMFO_220510_B4_140
_+SAMPLE
_USER = Lab Manager
_GONIOMETER_CODE = 20
_STAGE_CODE = 7
; Goniometer : D8 theta/2theta, stage : Chi drive
_SAMPLE_CHANGER_CODE = 0
_ATTACHMENTS_CODE = 0
_GONIOMETER_RADIUS = 217.5
_FIXED_DIVSLIT = 2
_MONOCHROMATOR = 0
; Incident beam monochromator : None
_SOLLER_SLITS_2 = 2
_BETA_FILTER = N
_ANALYZER_CODE = 0
; Received beam analyzer : None
_DATEMEASURED = 17-May-2022 08:28:03
_RUNTIME = 1825.401
_WL_UNIT = A
_WL1 = 1.5406
_WL2 = 1.54439
_WL3 = 1.39222
_WLRATIO = 0.5
_ANODE = Cu
_V4_INF_USER = Lab Manager
_V4_INF_SAMPLEID = IMS_LMFO_220510_B4_140
_V4_INF_CREATOR = BrmlToV4Converter
_V4_INF_CREATOR_VERSION = 7.5.0.0

; Data for range 1
_DRIVE = COUPLED
_STEPTIME = 86.4
_STEPSIZE = 0.01973
_STEPMODE = C
_START = 5
_THETA = 2.5
_2THETA = 5
_PHI = 179.609
_DETECTORSLIT = out
_TIMESTARTED = 0
_ROTATION_SPEED = 15
_KV = 40
_MA = 40
_RANGE_WL = 1.5406
_3DPLANE = 0
_V4_PSD2THETA = 9999
_V4_PSDCHANNEL1 = 0
_V4_PSDAPERTURE = 3.788144
_V4_PSDTYPE = 5
_V4_PSDFIXED = 0
_V4_COUNTERS_MASK = 1
_V4_DRIVES_MASK = 0
_V4_ENCODERS_MASK = 0
_COUNTS = 1
; Cnt2_D1
304
309
300
314
308
329
275
301
272
306
282
289
297
271
246
247
275
260
261
247
269
269
238
256
275
226
199
227
221
215
216
202
221
234
206
195
195
173
199
209
206
179
171
185
182
187
190
166
197
188
155
182
185
145
147
169
142
138
156
142
136
122
149
127
130
149
135
113
137
138
136
136
131
111
133
121
116
119
120
108
107
118
135
101
113
104
116
109
112
114
108
107
119
101
92
96
95
116
93
99
85
99
107
108
91
92
105
114
91
85
86
79
84
93
105
98
77
79
98
92
72
68
108
97
69
80
85
75
103
90
83
76
63
79
65
72
74
76
86
62
70
98
71
71
80
65
80
62
78
76
73
74
74
52
68
67
64
74
63
70
63
86
49
70
66
55
54
54
75
57
59
69
64
49
49
66
51
57
47
54
50
60
53
64
58
67
55
54
62
50
65
65
57
51
54
47
52
50
50
59
54
50
56
54
52
45
52
48
50
47
42
61
58
45
41
56
41
45
42
53
53
73
96
102
130
152
161
212
1281
6294
2245
291
123
85
67
69
62
58
57
52
50
41
54
47
34
43
47
53
45
40
57
27
43
39
51
43
41
36
53
36
45
33
31
37
35
52
45
40
44
42
38
41
31
40
42
38
32
38
32
43
33
33
47
39
29
31
32
38
36
38
37
38
48
39
32
36
38
48
39
38
31
47
30
38
44
30
35
30
41
38
29
29
25
44
35
24
27
44
40
34
26
29
35
27
35
29
42
32
45
32
29
46
36
28
34
33
35
29
30
39
28
24
38
28
35
34
41
29
28
45
37
25
39
32
24
26
27
40
30
28
35
41
39
33
31
31
31
46
45
35
33
37
38
40
42
40
40
50
38
37
43
36
41
49
43
32
46
39
27
38
36
34
44
40
37
46
51
38
49
40
42
44
50
54
47
33
51
48
42
41
46
46
46
51
47
50
39
52
39
42
56
48
42
43
41
62
43
44
52
62
104
205
80
48
42
42
47
40
40
44
38
42
47
45
38
32
43
47
47
46
52
34
51
48
41
45
33
44
45
43
50
37
60
42
50
34
45
42
43
41
36
44
36
40
48
45
32
34
42
37
38
46
45
37
63
45
39
52
35
32
47
39
45
37
49
37
39
46
52
39
46
57
61
50
46
51
47
43
47
61
53
65
68
60
76
74
104
115
109
158
184
725
3269
2446
659
220
110
61
65
49
40
36
46
38
43
35
44
35
38
38
43
45
40
59
44
72
73
61
59
180
563
427
128
79
65
32
37
43
37
33
43
35
39
37
29
34
35
29
38
42
32
40
41
29
34
44
28
36
37
36
47
33
46
42
37
39
49
34
44
33
39
40
36
42
43
36
38
41
37
46
34
39
29
55
43
38
33
35
41
44
45
42
32
45
47
44
53
42
40
29
48
35
31
38
45
37
35
53
42
47
53
43
38
55
46
51
40
58
50
52
56
51
48
55
66
66
75
90
115
124
122
293
1514
2626
1424
527
198
134
88
61
58
64
54
36
55
44
52
40
35
28
53
53
30
32
36
35
37
33
43
28
45
36
34
32
36
45
53
30
38
33
30
44
29
43
29
26
37
37
31
35
29
33
34
42
17
34
26
29
30
34
33
37
32
34
36
43
33
30
42
42
54
80
247
404
249
121
63
54
43
45
43
25
32
27
39
29
32
29
35
29
38
27
36
29
31
28
37
30
43
30
25
31
39
33
27
41
35
24
34
34
31
26
32
25
26
36
27
25
25
36
29
31
26
26
38
21
38
32
27
29
32
25
17
40
42
26
24
21
36
31
35
27
34
21
31
31
24
38
28
30
22
42
26
27
39
29
29
29
30
30
34
29
35
25
31
31
28
31
31
16
31
36
27
30
30
23
36
33
29
49
50
48
41
35
19
25
32
34
39
28
33
23
26
28
31
23
32
40
27
28
27
22
30
31
34
38
37
39
31
35
35
25
27
25
33
29
27
31
25
33
31
33
35
36
32
28
26
29
42
25
41
40
34
46
64
53
74
64
101
251
751
909
535
254
119
63
66
55
39
34
25
38
39
23
28
27
24
35
25
33
32
26
40
26
22
29
27
32
33
25
22
32
27
26
35
29
26
29
33
27
27
26
35
34
39
27
26
31
28
28
31
29
35
25
30
28
35
30
34
30
25
29
22
26
25
35
26
36
37
35
43
32
19
27
35
34
42
34
36
39
44
41
42
40
24
51
44
41
54
53
65
76
81
101
138
448
1101
1204
769
391
223
118
74
63
42
47
45
40
33
39
19
41
28
30
33
33
32
33
30
27
32
23
27
28
26
25
23
21
23
26
21
28
23
27
35
28
24
27
22
27
36
24
33
38
29
32
49
39
58
70
144
336
395
329
162
100
57
52
34
37
33
32
29
33
19
28
31
25
29
32
27
44
24
27
27
19
17
27
27
28
21
20
25
21
35
35
20
20
26
21
22
25
17
27
18
24
28
24
22
26
20
17
28
24
22
25
20
14
34
18
22
30
23
30
28
15
26
21
18
24
25
17
17
17
28
24
29
22
25
24
25
24
27
22
26
22
32
15
15
23
19
29
27
26
29
26
27
21
26
26
30
18
38
26
35
28
25
21
22
25
32
18
26
32
22
24
19
29
33
23
21
30
24
25
28
19
26
35
25
26
17
19
27
29
28
19
34
28
33
29
38
76
134
167
153
114
86
33
41
30
26
29
34
33
32
21
40
45
76
131
201
199
124
109
48
40
41
31
29
30
19
22
31
26
26
32
21
24
33
18
20
23
16
15
25
16
20
18
22
16
25
16
22
18
15
26
23
28
21
25
25
27
29
23
32
19
20
18
30
25
33
21
21
22
23
26
27
26
31
28
20
19
32
35
32
42
69
110
167