File: 02-Raw_data/LFMO/IMS_LMFO_C3.uxd
;content of C:\DATA XRD\IMS_LMFO_324.raw - (Diffrac Plus V4 file)
_FILEVERSION = 3
_SAMPLE = IMS_LMFO_323
_+SAMPLE
_USER = Lab Manager
_GONIOMETER_CODE = 20
_STAGE_CODE = 7
; Goniometer : D8 theta/2theta, stage : Chi drive
_SAMPLE_CHANGER_CODE = 0
_ATTACHMENTS_CODE = 0
_GONIOMETER_RADIUS = 217.5
_FIXED_DIVSLIT = 2
_MONOCHROMATOR = 0
; Incident beam monochromator : None
_SOLLER_SLITS_2 = 2
_BETA_FILTER = N
_ANALYZER_CODE = 0
; Received beam analyzer : None
_DATEMEASURED = 21-Jul-2022 16:59:25
_RUNTIME = 1821.183
_WL_UNIT = A
_WL1 = 1.5406
_WL2 = 1.54439
_WL3 = 1.39222
_WLRATIO = 0.5
_ANODE = Cu
_V4_INF_USER = Lab Manager
_V4_INF_SAMPLEID = IMS_LMFO_323
_V4_INF_CREATOR = BrmlToV4Converter
_V4_INF_CREATOR_VERSION = 7.5.0.0

; Data for range 1
_DRIVE = COUPLED
_STEPTIME = 92.544
_STEPSIZE = 0.01973
_STEPMODE = C
_START = 10
_THETA = 5
_2THETA = 10
_PHI = 37.9922
_DETECTORSLIT = out
_TIMESTARTED = 0
_ROTATION_SPEED = 15
_KV = 40
_MA = 40
_RANGE_WL = 1.5406
_3DPLANE = 0
_V4_PSD2THETA = 9999
_V4_PSDCHANNEL1 = 0
_V4_PSDAPERTURE = 3.788144
_V4_PSDTYPE = 5
_V4_PSDFIXED = 0
_V4_COUNTERS_MASK = 1
_V4_DRIVES_MASK = 0
_V4_ENCODERS_MASK = 0
_COUNTS = 1
; Cnt2_D1
83
109
93
96
82
92
84
80
94
95
97
89
74
83
91
73
87
90
84
91
69
67
73
77
79
68
70
68
85
84
77
74
68
69
61
65
65
77
55
73
66
70
56
57
59
65
45
56
68
64
68
76
66
71
55
67
50
44
65
59
56
58
59
45
60
52
59
67
65
64
58
45
50
47
60
54
59
55
52
49
42
57
31
41
42
50
57
49
35
60
45
47
55
45
39
42
44
41
52
57
31
40
42
50
45
45
41
52
39
37
46
40
45
42
48
40
47
33
39
45
35
38
44
47
31
43
37
29
34
43
47
36
42
39
47
36
65
70
126
121
138
169
186
202
232
317
835
3087
2097
348
124
60
54
53
29
48
33
35
35
32
39
33
29
29
35
32
32
28
34
27
34
33
26
37
26
38
25
36
30
21
20
28
27
32
34
23
29
23
22
32
34
31
19
32
25
27
25
24
26
30
21
22
18
27
36
32
38
15
27
20
24
23
19
24
30
22
25
17
21
25
18
20
31
25
19
22
23
13
22
37
32
23
21
18
20
21
26
20
29
26
18
21
23
21
26
20
21
18
20
17
20
29
18
18
14
25
28
23
27
23
18
9.000000
16
13
24
24
26
19
16
29
21
33
26
18
22
21
23
22
24
23
21
22
31
31
21
26
11
24
23
17
12
21
19
21
11
19
26
15
19
10
19
15
21
13
21
22
13
25
24
17
19
17
21
13
19
21
16
18
16
23
17
14
14
20
20
16
13
19
16
16
17
18
20
19
17
15
14
18
19
29
18
29
27
27
27
27
21
28
62
131
58
34
21
21
12
13
18
9.000000
12
17
17
16
12
16
16
10
17
11
17
17
18
17
13
11
17
16
10
16
17
11
8.000000
15
18
14
16
19
15
12
13
12
12
13
10
14
16
11
16
9.000000
14
8.000000
13
14
17
14
14
18
17
9.000000
10
11
12
16
20
15
21
18
18
13
18
17
15
18
18
18
15
21
18
25
30
47
65
81
97
131
139
159
190
195
257
609
1835
2351
572
176
74
23
33
20
19
12
15
12
11
15
10
15
25
20
17
21
32
30
36
32
52
53
70
112
352
355
115
34
21
15
13
7.000000
19
18
15
15
11
9.000000
16
15
9.000000
15
6.000000
13
14
10
15
11
11
11
6.000000
17
10
14
12
10
14
16
13
13
7.000000
21
17
8.000000
10
14
13
11
13
7.000000
10
7.000000
9.000000
6.000000
11
5.000000
9.000000
8.000000
7.000000
16
13
16
13
12
6.000000
10
12
15
6.000000
6.000000
16
8.000000
19
11
8.000000
7.000000
9.000000
9.000000
11
9.000000
10
11
13
16
10
12
19
16
17
6.000000
15
15
9.000000
11
23
18
29
53
79
99
108
132
155
188
214
387
946
2237
1290
364
147
82
47
31
25
23
17
11
21
10
12
23
8.000000
18
10
13
14
6.000000
9.000000
6.000000
9.000000
11
14
12
14
16
7.000000
18
14
6.000000
13
13
9.000000
16
8.000000
11
8.000000
8.000000
13
8.000000
13
16
6.000000
14
9.000000
11
11
8.000000
7.000000
5.000000
10
10
8.000000
9.000000
10
14
16
14
23
25
34
22
32
35
46
59
160
351
210
65
26
32
16
15
10
12
12
13
13
10
14
10
12
12
13
7.000000
2.000000
9.000000
12
11
16
14
9.000000
8.000000
11
12
3.000000
12
12
10
14
14
7.000000
9.000000
12
18
13
12
12
12
15
11
10
12
11
15
10
16
11
6.000000
7.000000
11
12
12
10
8.000000
11
10
18
9.000000
11
13
6.000000
15
14
15
7.000000
11
12
12
9.000000
9.000000
4.000000
11
8.000000
8.000000
13
15
9.000000
15
6.000000
7.000000
13
15
7.000000
11
12
9.000000
7.000000
13
8.000000
8.000000
10
11
16
11
22
16
9.000000
15
13
12
21
13
24
26
22
10
19
16
5.000000
8.000000
13
12
11
8.000000
11
7.000000
15
8.000000
12
10
5.000000
8.000000
7.000000
8.000000
11
16
4.000000
11
11
8.000000
5.000000
15
14
11
12
13
10
12
15
15
14
6.000000
10
21
14
20
12
15
16
16
19
14
17
27
43
55
62
65
79
113
136
211
495
833
477
169
75
57
31
33
15
19
8.000000
6.000000
13
7.000000
10
18
9.000000
16
12
6.000000
5.000000
10
14
10
13
9.000000
11
8.000000
8.000000
10
10
12
12
11
10
11
11
8.000000
11
14
11
11
12
6.000000
14
11
11
10
11
5.000000
5.000000
8.000000
12
8.000000
9.000000
17
12
14
18
11
7.000000
10
10
13
11
17
11
13
16
15
13
7.000000
15
18
14
11
15
17
20
10
20
23
19
23
20
22
19
40
54
83
100
111
131
175
242
402
881
1173
690
256
112
66
49
39
24
27
19
16
23
16
18
10
13
24
13
14
12
10
9.000000
19
10
7.000000
22
13
11
11
13
13
14
4.000000
10
8.000000
17
11
10
16
8.000000
10
13
13
7.000000
8.000000
19
17
33
44
37
41
65
74
147
274
384
254
121
73
25
21
16
19
19
12
16
11
11
16
13
16
12
16
22
12
10
8.000000
10
8.000000
8.000000
11
7.000000
9.000000
7.000000
9.000000
9.000000
12
6.000000
9.000000
9.000000
3.000000
9.000000
13
10
5.000000
15
9.000000
6.000000
4.000000
8.000000
8.000000
7.000000
10
8.000000
10
8.000000
7.000000
12
8.000000
10
12
8.000000
13
8.000000
11
7.000000
6.000000
9.000000
13
7.000000
7.000000
9.000000
6.000000
10
8.000000
4.000000
3.000000
6.000000
7.000000
7.000000
7.000000
16
10
9.000000
10
12
10
6.000000
8.000000
12
9.000000
11
11
9.000000
18
20
6.000000
6.000000
8.000000
7.000000
8.000000
10
7.000000
9.000000
6.000000
4.000000
17
10
5.000000
9.000000
8.000000
4.000000
6.000000
4.000000
6.000000
9.000000
7.000000
13
12
6.000000
11
3.000000
8.000000
10
11
9.000000
9.000000
7.000000
6.000000
9.000000
7.000000
12
13
11
9.000000
10
7.000000
17
15
24
28
31
31
36
70
98
144
183
72
37
26
14
13
4.000000
15
13
25
27
24
23
46
74
94
153
196
117
64
26
17
14
12
10
10
13
16
13
11
11
9.000000
10
13
9.000000
2.000000
7.000000
1.000000
8.000000
10
15
8.000000
7.000000
6.000000
6.000000
2.000000
8.000000
7.000000
8.000000
7.000000
11
11
7.000000
12
12
14
10
10
9.000000
7.000000
8.000000
10
11
11
7.000000
4.000000
7.000000
10
8.000000
15
9.000000
5.000000
13
8.000000
16
7.000000
13
14
28
31
25
41