File: 02-Raw_data/LFMO/IMS_LMFO_B2.uxd
;content of C:\DATA XRD\IMS_LMFO_220510_B2_139.raw - (Diffrac Plus V4 file)
_FILEVERSION = 3
_SAMPLE = IMS_LMFO_220510_B2_139
_+SAMPLE
_USER = Lab Manager
_GONIOMETER_CODE = 20
_STAGE_CODE = 7
; Goniometer : D8 theta/2theta, stage : Chi drive
_SAMPLE_CHANGER_CODE = 0
_ATTACHMENTS_CODE = 0
_GONIOMETER_RADIUS = 217.5
_FIXED_DIVSLIT = 2
_MONOCHROMATOR = 0
; Incident beam monochromator : None
_SOLLER_SLITS_2 = 2
_BETA_FILTER = N
_ANALYZER_CODE = 0
; Received beam analyzer : None
_DATEMEASURED = 16-May-2022 17:40:12
_RUNTIME = 1816.495
_WL_UNIT = A
_WL1 = 1.5406
_WL2 = 1.54439
_WL3 = 1.39222
_WLRATIO = 0.5
_ANODE = Cu
_V4_INF_USER = Lab Manager
_V4_INF_SAMPLEID = IMS_LMFO_220510_B2_139
_V4_INF_CREATOR = BrmlToV4Converter
_V4_INF_CREATOR_VERSION = 7.5.0.0

; Data for range 1
_DRIVE = COUPLED
_STEPTIME = 86.4
_STEPSIZE = 0.01973
_STEPMODE = C
_START = 5
_THETA = 2.5
_2THETA = 5
_PHI = 87.8047
_DETECTORSLIT = out
_TIMESTARTED = 0
_ROTATION_SPEED = 15
_KV = 40
_MA = 40
_RANGE_WL = 1.5406
_3DPLANE = 0
_V4_PSD2THETA = 9999
_V4_PSDCHANNEL1 = 0
_V4_PSDAPERTURE = 3.788144
_V4_PSDTYPE = 5
_V4_PSDFIXED = 0
_V4_COUNTERS_MASK = 1
_V4_DRIVES_MASK = 0
_V4_ENCODERS_MASK = 0
_COUNTS = 1
; Cnt2_D1
337
368
355
358
319
328
333
345
332
345
274
322
297
280
325
271
287
268
283
258
263
287
234
256
230
231
255
244
237
223
236
232
176
217
223
185
202
206
176
185
176
176
190
197
173
152
164
193
159
154
152
161
159
159
134
130
145
151
137
153
126
126
128
115
126
106
113
111
140
128
113
116
112
103
130
104
114
108
118
113
117
109
118
107
100
111
99
98
78
83
119
106
103
97
86
95
76
95
97
80
94
88
78
80
74
113
82
85
82
77
62
73
59
82
85
86
73
93
66
67
80
71
83
76
72
60
66
84
75
73
56
72
86
68
75
78
69
74
65
75
66
59
62
56
60
60
63
63
50
70
53
56
57
48
58
52
61
47
53
50
67
58
60
49
61
48
53
57
65
58
60
41
60
68
42
47
45
52
55
57
57
60
46
61
68
63
42
42
48
45
52
39
48
60
43
48
37
39
48
39
41
51
44
51
47
47
35
49
32
49
48
49
30
33
40
44
54
46
34
56
45
65
71
57
87
85
101
154
443
2745
6878
700
274
177
153
100
81
79
56
55
56
44
51
46
50
43
44
37
39
48
42
35
41
47
42
27
41
43
34
42
39
39
32
35
43
38
48
49
37
24
39
41
41
39
42
35
32
32
36
27
27
27
37
38
38
30
28
25
41
35
33
36
38
31
29
33
31
33
34
24
30
35
38
28
24
29
22
17
30
26
26
33
40
24
35
25
30
33
37
27
28
31
33
36
34
25
24
36
31
31
30
30
27
26
30
33
30
30
30
27
21
30
38
23
24
34
28
25
27
36
25
30
28
28
26
23
40
26
40
31
33
37
32
29
25
30
32
34
29
34
37
24
30
24
30
31
36
24
30
37
38
27
42
30
38
25
22
21
31
35
32
30
30
38
30
32
25
27
32
33
34
43
32
37
33
23
36
31
32
34
22
32
29
32
40
43
33
50
56
38
46
46
31
28
34
39
38
32
43
41
58
247
127
54
47
30
28
30
39
25
31
26
27
36
39
28
19
30
27
31
31
29
24
22
17
25
34
28
34
32
27
26
33
30
24
33
29
35
37
30
23
29
30
29
29
23
26
26
25
35
34
29
22
27
41
27
43
35
43
25
29
46
42
53
29
44
35
43
49
41
43
45
51
44
46
40
52
36
53
61
60
55
67
73
66
72
85
71
103
95
140
351
1991
4039
804
349
194
136
105
67
62
49
40
44
31
36
38
24
38
26
37
27
35
36
42
36
37
46
44
72
441
579
122
76
63
43
31
39
23
32
31
32
25
23
33
27
25
25
22
24
24
33
25
31
18
26
28
21
23
24
32
31
18
29
33
29
21
21
19
25
20
22
23
22
25
26
25
22
29
24
27
24
30
24
31
25
26
22
35
33
24
29
28
30
24
34
34
26
24
35
25
33
27
42
31
23
32
35
34
31
34
35
23
33
29
34
38
38
38
42
47
42
37
56
66
59
72
50
74
64
91
147
753
3275
1432
474
280
218
139
139
96
69
51
40
34
35
35
31
28
26
32
32
31
29
27
20
23
27
29
29
25
26
25
31
24
25
19
27
24
28
16
22
23
22
24
21
32
24
22
23
30
19
23
26
25
28
18
26
18
22
25
29
32
26
21
27
32
25
35
24
40
50
153
497
207
98
78
40
48
40
35
23
36
37
30
29
21
28
28
30
20
28
28
21
25
24
21
16
25
16
16
34
28
28
27
25
27
21
25
23
18
22
24
17
16
18
26
19
20
27
25
33
22
13
18
26
20
20
18
17
12
24
21
21
25
25
19
12
15
18
17
21
28
15
21
19
19
19
28
13
16
21
35
26
22
16
13
16
23
23
26
21
29
24
23
28
24
18
24
28
34
23
22
26
30
27
29
27
26
33
49
43
26
21
25
30
18
26
22
15
23
19
17
17
24
17
28
16
33
21
21
19
35
25
34
23
19
40
26
27
22
34
20
15
30
32
18
21
29
24
27
25
28
31
31
28
39
30
31
36
39
30
42
45
36
44
44
47
79
172
785
1106
405
182
137
95
86
67
52
40
49
33
38
25
33
25
28
26
28
33
17
22
18
26
25
21
23
14
20
18
30
19
29
21
21
16
18
22
25
16
20
18
25
31
16
22
18
29
28
19
24
30
20
16
14
21
14
18
24
24
22
20
20
28
29
23
30
34
25
46
27
32
41
57
46
35
38
41
36
48
30
54
42
40
38
45
44
44
50
68
64
68
63
66
100
378
1453
1116
504
270
216
170
109
103
71
65
50
31
36
35
26
32
28
29
22
24
15
23
24
35
21
24
25
16
31
29
25
19
26
24
20
19
27
21
26
28
24
20
24
27
28
26
21
31
31
35
29
19
30
37
105
439
410
203
99
90
71
54
36
31
37
31
42
34
24
14
26
30
33
19
31
10
17
24
22
22
20
18
16
19
21
20
21
17
13
22
18
21
16
15
19
17
23
15
13
12
19
23
14
22
23
19
19
16
14
19
17
17
17
19
16
10
17
15
24
18
16
20
16
15
10
16
23
19
28
20
18
17
17
29
14
14
19
21
25
15
10
13
25
23
26
36
25
16
20
17
23
22
18
13
18
18
19
15
18
17
19
17
21
18
20
17
22
16
20
21
22
15
16
18
18
20
15
19
25
28
28
18
24
19
30
25
22
25
26
20
28
24
31
29
32
64
197
193
104
63
54
51
44
34
36
37
38
25
25
35
25
40
54
166
279
160
75
54
33
43
30
33
25
26
28
19
23
19
21
25
13
18
21
20
24
22
13
18
28
19
16
15
14
11
10
15
16
14
16
17
18
14
16
19
17
14
23
24
24
19
15
20
22
20
14
25
25
24
26
18
24
22
23
22
28
27
26
37
28
37
47
159
208