File: 02-Raw_data/LFMO/IMS_LMFO_C4.uxd
;content of C:\DATA XRD\IMS_LMFO_327.raw - (Diffrac Plus V4 file)
_FILEVERSION = 3
_SAMPLE = IMS_LMFO_327
_+SAMPLE
_USER = Lab Manager
_GONIOMETER_CODE = 20
_STAGE_CODE = 7
; Goniometer : D8 theta/2theta, stage : Chi drive
_SAMPLE_CHANGER_CODE = 0
_ATTACHMENTS_CODE = 0
_GONIOMETER_RADIUS = 217.5
_FIXED_DIVSLIT = 2
_MONOCHROMATOR = 0
; Incident beam monochromator : None
_SOLLER_SLITS_2 = 2
_BETA_FILTER = N
_ANALYZER_CODE = 0
; Received beam analyzer : None
_DATEMEASURED = 22-Jul-2022 05:14:08
_RUNTIME = 1821.662
_WL_UNIT = A
_WL1 = 1.5406
_WL2 = 1.54439
_WL3 = 1.39222
_WLRATIO = 0.5
_ANODE = Cu
_V4_INF_USER = Lab Manager
_V4_INF_SAMPLEID = IMS_LMFO_327
_V4_INF_CREATOR = BrmlToV4Converter
_V4_INF_CREATOR_VERSION = 7.5.0.0

; Data for range 1
_DRIVE = COUPLED
_STEPTIME = 92.544
_STEPSIZE = 0.01973
_STEPMODE = C
_START = 10
_THETA = 5
_2THETA = 10
_PHI = 55.9922
_DETECTORSLIT = out
_TIMESTARTED = 0
_ROTATION_SPEED = 15
_KV = 40
_MA = 40
_RANGE_WL = 1.5406
_3DPLANE = 0
_V4_PSD2THETA = 9999
_V4_PSDCHANNEL1 = 0
_V4_PSDAPERTURE = 3.788144
_V4_PSDTYPE = 5
_V4_PSDFIXED = 0
_V4_COUNTERS_MASK = 1
_V4_DRIVES_MASK = 0
_V4_ENCODERS_MASK = 0
_COUNTS = 1
; Cnt2_D1
82
69
97
86
75
83
81
68
100
82
80
78
73
83
69
74
75
65
67
73
67
74
71
68
70
78
62
87
56
59
73
61
70
73
63
63
77
65
58
74
70
54
69
82
62
59
62
54
66
58
60
68
67
62
62
57
61
60
44
48
54
52
48
56
51
66
59
66
48
41
54
47
56
51
31
47
43
59
46
59
39
48
48
45
45
45
45
45
46
51
59
52
41
37
54
46
38
42
40
41
52
43
40
45
34
53
47
36
41
35
57
37
46
50
39
38
45
41
39
48
36
45
39
37
41
34
44
39
42
41
34
50
36
44
46
41
59
54
70
62
72
87
105
140
266
1017
4744
4302
565
161
86
58
45
55
45
50
49
41
33
33
40
41
34
41
34
33
33
34
40
28
36
52
44
40
24
26
25
26
32
34
30
26
30
32
35
27
29
26
30
28
33
27
33
30
21
23
36
27
22
35
25
22
28
23
30
17
24
21
27
27
21
20
31
39
25
37
34
29
19
17
26
28
21
29
24
20
29
28
21
24
24
29
26
21
25
27
18
20
21
17
17
20
19
22
18
18
16
25
27
18
23
22
15
25
25
26
15
20
15
23
24
26
14
22
24
16
26
23
15
17
16
20
18
25
21
18
16
20
18
17
27
23
29
18
19
16
14
23
12
18
29
21
25
26
13
20
20
13
16
14
14
19
26
19
17
18
18
20
16
23
22
16
25
25
16
19
21
29
18
16
22
31
19
23
23
30
7.000000
22
21
28
18
17
20
24
13
21
20
25
26
26
23
25
24
25
22
30
17
51
176
80
19
18
30
16
20
14
13
18
17
19
26
11
16
17
14
9.000000
9.000000
14
16
12
20
17
18
24
22
17
15
10
18
14
14
21
11
18
19
18
18
17
15
19
19
13
17
21
13
21
11
21
19
23
19
25
16
16
14
17
18
16
20
19
16
20
17
17
21
12
17
21
11
15
26
24
17
22
18
13
27
25
22
38
31
33
56
52
64
100
97
172
413
1996
4321
927
265
117
49
33
26
19
21
18
15
18
20
22
14
20
17
17
24
14
13
22
16
25
31
42
105
413
675
168
61
34
23
17
19
19
14
11
10
12
15
14
14
12
13
15
23
15
11
19
8.000000
18
16
14
11
9.000000
17
9.000000
25
18
8.000000
14
14
9.000000
9.000000
17
16
11
17
14
11
12
12
16
14
7.000000
15
9.000000
14
16
13
10
11
10
12
20
14
11
9.000000
11
13
6.000000
13
13
9.000000
13
16
10
12
5.000000
11
15
20
14
13
2.000000
8.000000
10
13
15
15
14
15
15
4.000000
17
17
14
15
15
23
34
39
49
60
77
83
98
190
725
3015
2371
554
217
100
55
41
28
21
19
23
23
15
17
21
16
12
17
17
9.000000
15
18
12
18
11
10
20
13
19
15
9.000000
10
9.000000
14
18
13
11
15
20
7.000000
10
15
10
9.000000
12
15
13
11
9.000000
8.000000
15
14
13
7.000000
12
11
14
6.000000
10
9.000000
16
13
20
11
22
24
19
30
38
135
435
343
98
42
29
24
16
15
13
14
16
10
11
12
13
11
19
15
13
7.000000
13
12
9.000000
12
21
8.000000
16
13
10
13
16
11
13
13
9.000000
13
10
16
8.000000
14
11
11
12
18
10
9.000000
12
11
8.000000
12
12
6.000000
15
12
16
15
10
16
7.000000
11
7.000000
13
8.000000
9.000000
12
10
12
12
12
12
10
12
14
6.000000
9.000000
10
9.000000
14
11
5.000000
13
13
17
6.000000
16
15
17
17
11
5.000000
12
19
12
11
14
11
14
10
14
17
13
17
9.000000
17
20
15
15
27
38
22
15
13
14
12
8.000000
7.000000
7.000000
10
8.000000
16
6.000000
11
7.000000
17
12
9.000000
11
13
9.000000
14
11
13
12
18
10
14
13
14
12
9.000000
11
14
12
6.000000
10
13
12
7.000000
21
12
13
18
13
21
15
19
16
16
20
19
26
27
34
38
55
64
125
398
1263
858
253
106
72
35
16
31
22
17
10
9.000000
15
13
12
18
12
18
12
13
19
7.000000
19
8.000000
9.000000
7.000000
11
6.000000
12
10
13
10
8.000000
13
13
9.000000
16
13
15
13
6.000000
11
8.000000
9.000000
12
7.000000
25
16
14
11
5.000000
10
12
10
7.000000
10
11
20
15
13
14
11
13
15
13
15
13
15
10
16
20
13
12
13
16
16
18
17
19
25
16
12
16
19
24
33
24
24
33
46
55
73
69
97
265
759
1868
1255
383
179
108
43
37
24
24
19
18
18
26
17
14
20
13
12
14
15
13
15
12
10
14
15
15
8.000000
11
12
15
14
11
11
14
10
12
5.000000
14
11
8.000000
15
10
12
14
8.000000
13
18
17
20
31
36
43
68
210
537
481
173
89
42
27
23
14
12
18
15
8.000000
19
15
6.000000
9.000000
10
13
10
11
16
17
8.000000
11
8.000000
11
17
12
14
12
15
7.000000
6.000000
13
8.000000
13
4.000000
9.000000
7.000000
8.000000
9.000000
6.000000
7.000000
13
7.000000
4.000000
7.000000
10
18
11
13
8.000000
4.000000
12
12
9.000000
10
9.000000
9.000000
14
10
6.000000
12
14
12
8.000000
13
4.000000
12
9.000000
10
12
13
6.000000
9.000000
8.000000
14
11
10
8.000000
13
12
12
8.000000
15
7.000000
9.000000
8.000000
10
12
16
16
12
16
10
7.000000
8.000000
9.000000
2.000000
7.000000
12
8.000000
14
9.000000
14
15
8.000000
11
8.000000
12
14
5.000000
14
7.000000
8.000000
7.000000
15
8.000000
10
11
5.000000
11
12
11
8.000000
20
5.000000
9.000000
11
8.000000
15
10
13
11
17
18
13
20
30
36
79
168
289
155
50
22
26
15
15
13
18
10
15
24
23
23
34
79
167
299
216
76
50
41
18
15
12
15
16
11
6.000000
11
10
14
11
8.000000
10
14
8.000000
11
9.000000
8.000000
6.000000
10
11
5.000000
6.000000
14
10
10
5.000000
6.000000
8.000000
13
8.000000
5.000000
4.000000
10
10
6.000000
12
8.000000
15
8.000000
3.000000
6.000000
5.000000
14
9.000000
10
10
5.000000
10
12
11
9.000000
17
12
10
9.000000
12
26
20
27
31