File: 02-Raw_data/LFMO/IMS_LMFO_A4.uxd
;content of C:\DATA XRD\IMS_LMFO_220510_A4_137.raw - (Diffrac Plus V4 file)
_FILEVERSION = 3
_SAMPLE = IMS_LMFO_220510_A4_137
_+SAMPLE
_USER = Lab Manager
_GONIOMETER_CODE = 20
_STAGE_CODE = 7
; Goniometer : D8 theta/2theta, stage : Chi drive
_SAMPLE_CHANGER_CODE = 0
_ATTACHMENTS_CODE = 0
_GONIOMETER_RADIUS = 217.5
_FIXED_DIVSLIT = 2
_MONOCHROMATOR = 0
; Incident beam monochromator : None
_SOLLER_SLITS_2 = 2
_BETA_FILTER = N
_ANALYZER_CODE = 0
; Received beam analyzer : None
_DATEMEASURED = 16-May-2022 16:37:35
_RUNTIME = 1816.246
_WL_UNIT = A
_WL1 = 1.5406
_WL2 = 1.54439
_WL3 = 1.39222
_WLRATIO = 0.5
_ANODE = Cu
_V4_INF_USER = Lab Manager
_V4_INF_SAMPLEID = IMS_LMFO_220510_A4_137
_V4_INF_CREATOR = BrmlToV4Converter
_V4_INF_CREATOR_VERSION = 7.5.0.0

; Data for range 1
_DRIVE = COUPLED
_STEPTIME = 86.4
_STEPSIZE = 0.01973
_STEPMODE = C
_START = 5
_THETA = 2.5
_2THETA = 5
_PHI = 60.5078
_DETECTORSLIT = out
_TIMESTARTED = 0
_ROTATION_SPEED = 15
_KV = 40
_MA = 40
_RANGE_WL = 1.5406
_3DPLANE = 0
_V4_PSD2THETA = 9999
_V4_PSDCHANNEL1 = 0
_V4_PSDAPERTURE = 3.788144
_V4_PSDTYPE = 5
_V4_PSDFIXED = 0
_V4_COUNTERS_MASK = 1
_V4_DRIVES_MASK = 0
_V4_ENCODERS_MASK = 0
_COUNTS = 1
; Cnt2_D1
340
328
323
305
316
310
304
314
282
314
278
273
266
284
297
262
284
245
249
238
259
212
230
221
243
262
218
202
225
237
217
227
216
226
210
201
197
181
186
176
206
185
182
184
164
185
177
170
179
153
139
145
169
159
133
151
146
140
125
146
142
152
133
120
122
131
124
148
136
100
137
121
113
102
120
105
92
107
116
99
113
123
109
96
114
93
93
109
121
96
97
103
103
97
86
85
91
84
94
101
102
89
89
84
76
72
92
85
89
76
80
68
74
88
88
76
62
72
75
70
78
67
60
51
59
86
67
67
64
61
69
77
71
73
62
52
71
74
72
66
62
71
62
52
74
83
70
53
60
66
52
69
56
66
51
55
50
57
65
54
45
60
56
61
57
58
38
48
59
56
60
54
58
56
41
51
57
47
50
38
64
51
57
55
63
48
55
54
52
56
46
47
48
47
55
48
44
57
47
40
50
46
51
31
48
36
57
46
48
46
41
49
49
43
33
43
47
37
34
65
46
66
48
89
87
140
188
239
725
4054
3572
689
428
294
191
140
90
70
70
62
50
50
57
37
38
50
58
40
40
37
44
30
35
36
42
39
32
33
38
30
34
37
47
31
37
34
36
32
33
30
30
36
29
22
41
24
35
36
38
39
33
36
30
24
22
28
31
33
39
31
18
30
37
34
48
34
20
34
27
31
31
29
26
27
26
33
35
28
29
32
27
30
28
31
25
30
30
26
27
31
35
21
28
25
30
29
28
33
30
29
32
24
29
30
23
28
27
24
26
24
27
21
25
19
24
23
17
33
26
35
24
27
23
26
19
19
17
17
24
23
28
24
27
32
23
26
28
28
14
25
21
29
32
32
24
20
27
28
20
43
30
23
20
23
21
22
24
27
32
31
20
27
23
25
25
27
33
24
27
22
16
23
29
17
33
20
38
30
29
37
25
36
33
38
30
29
29
35
44
38
42
47
45
46
43
40
41
36
28
38
95
200
105
55
46
46
25
38
31
31
34
19
24
19
12
17
27
25
24
32
21
30
24
25
26
26
22
27
18
26
31
28
24
25
16
20
26
24
30
21
23
17
35
26
29
30
19
17
20
32
33
25
29
27
25
23
22
32
24
30
29
43
45
36
39
37
43
48
39
64
55
62
57
67
70
62
53
64
54
59
61
71
77
74
88
81
122
122
142
150
242
599
2462
2117
854
464
310
196
140
99
68
58
53
31
33
40
27
25
28
45
47
34
39
40
42
39
57
49
57
112
430
267
146
127
87
67
37
31
23
25
20
23
15
24
22
26
19
19
27
22
26
25
21
27
20
21
21
17
28
24
20
26
33
15
13
20
30
23
23
17
21
29
21
29
18
30
24
26
15
23
23
25
24
28
23
20
25
23
20
20
15
37
24
20
23
20
15
31
28
26
30
36
27
30
27
42
30
33
32
21
26
41
33
41
31
37
36
34
40
34
43
42
36
52
57
44
61
55
70
84
144
245
998
1936
1092
667
474
311
270
166
115
86
67
58
48
47
42
37
25
32
30
22
36
14
38
29
32
13
24
22
19
26
17
19
23
21
20
21
21
24
19
24
20
23
21
17
9.000000
20
22
14
25
23
21
26
19
23
22
18
21
23
21
18
27
26
22
30
27
33
31
30
31
56
155
268
155
125
100
81
68
49
40
31
29
22
20
22
22
17
14
26
17
25
19
28
15
26
15
22
15
21
13
27
15
19
22
20
12
19
26
22
24
9.000000
15
21
18
24
17
16
20
19
16
33
24
18
20
19
16
15
17
21
22
19
20
14
22
25
13
19
25
20
20
15
16
13
17
23
26
14
12
17
16
18
26
13
21
17
22
19
15
21
21
15
14
23
19
16
23
11
21
24
19
19
24
26
27
28
28
22
29
33
41
31
15
23
12
36
27
21
25
17
14
20
27
22
23
23
24
27
25
24
22
31
28
23
29
23
24
27
18
31
24
28
25
35
14
32
25
22
35
26
27
32
27
20
25
32
31
36
24
30
41
31
38
40
40
51
73
77
90
218
640
656
363
258
181
153
140
83
67
66
28
45
33
36
24
34
23
24
16
16
17
21
15
19
14
26
21
18
16
24
22
17
16
19
14
32
18
25
24
20
13
19
14
24
13
21
16
16
18
20
17
19
22
22
24
20
28
18
20
25
33
19
35
32
21
45
43
42
41
50
40
54
47
51
46
53
51
38
49
60
61
44
36
42
55
58
48
60
62
63
72
69
80
95
143
401
876
743
486
391
301
260
174
135
106
83
80
51
57
28
26
25
25
35
31
13
23
13
13
28
18
8.000000
25
18
13
23
10
23
11
24
17
19
19
22
23
23
15
17
15
25
30
24
23
24
23
33
36
31
46
51
159
250
215
173
131
110
99
82
51
62
48
40
46
29
30
19
19
24
15
26
17
21
25
20
17
18
22
20
17
12
9.000000
11
25
19
15
19
12
18
14
17
11
18
14
18
9.000000
21
10
22
10
15
11
14
14
20
10
19
15
11
15
7.000000
9.000000
21
17
11
18
19
9.000000
18
15
11
17
18
16
12
24
7.000000
13
6.000000
19
18
20
15
14
16
19
24
15
15
23
20
23
16
15
18
18
18
19
23
14
20
16
21
16
15
16
14
13
19
18
18
21
17
22
15
21
17
18
24
23
28
22
23
24
17
20
22
23
29
31
13
26
29
18
34
31
21
34
29
26
29
48
63
120
115
88
79
79
63
50
33
32
32
33
28
33
38
31
45
75
145
129
114
94
66
50
54
34
33
30
35
20
24
26
21
16
20
19
9.000000
10
8.000000
16
10
12
10
15
8.000000
14
11
12
16
8.000000
15
19
10
16
13
13
25
19
11
15
19
18
21
22
13
19
15
18
32
14
29
18
19
21
22
21
20
20
18
26
17
26
25
44
18
54
124
103