File: 02-Raw_data/LFP/LFP_b_160C_15min.xy
! Initial file:   O:\a) Research area\01 - Batteries & Supercaps\EES Research LINES\RL2018001 Advanced Cathodes\Results\Maha-Joseba\Automation_paper\XRD\LFP_06_160-15\MI-JO_LFP_221110_06.xy
! Initial format:   1
! WAVE (A):      1.54060     1.54060     1.00000
! REM : data have been multiplied by     1.0000
! X_data : 2 Theta (deg.)
! Y_data : Intensity (arb. units)
!     X         Y
!--------------------------------------------------------------------------------
    10.0000      104.2
    10.0526       98.00000
    10.1052       82.70000
    10.1578       81.70000
    10.2105      113.4
    10.2631       66.40000
    10.3157      101.1
    10.3683       97.00000
    10.4209      100.1
    10.4735      106.2
    10.5261       68.40000
    10.5787       99.10000
    10.6314       70.50000
    10.6840       95.00000
    10.7366       95.00000
    10.7892      101.1
    10.8418       81.70000
    10.8944       79.70000
    10.9470       88.80000
    10.9996       88.80000
    11.0523       92.90000
    11.1049       84.80000
    11.1575       88.80000
    11.2101       84.80000
    11.2627       99.10000
    11.3153       84.80000
    11.3679       78.60000
    11.4206       83.70000
    11.4732       88.80000
    11.5258       64.30000
    11.5784       92.90000
    11.6310       82.70000
    11.6836       74.60000
    11.7362       83.70000
    11.7888       92.90000
    11.8415       71.50000
    11.8941       87.80000
    11.9467      102.1
    11.9993       79.70000
    12.0519       71.50000
    12.1045       66.40000
    12.1571       66.40000
    12.2098       72.50000
    12.2624       60.30000
    12.3150       70.50000
    12.3676       63.30000
    12.4202       69.40000
    12.4728       74.60000
    12.5254       77.60000
    12.5780       67.40000
    12.6307       79.70000
    12.6833       84.80000
    12.7359       66.40000
    12.7885       76.60000
    12.8411       70.50000
    12.8937       75.60000
    12.9463       76.60000
    12.9989       76.60000
    13.0516       69.40000
    13.1042       69.40000
    13.1568       75.60000
    13.2094       68.40000
    13.2620       64.30000
    13.3146       63.30000
    13.3672       62.30000
    13.4199       71.50000
    13.4725       65.40000
    13.5251       80.70000
    13.5777       68.40000
    13.6303       67.40000
    13.6829       73.50000
    13.7355       58.20000
    13.7881       57.20000
    13.8408       68.40000
    13.8934       74.60000
    13.9460       64.30000
    13.9986       56.20000
    14.0512       65.40000
    14.1038       64.30000
    14.1564       62.30000
    14.2090       52.10000
    14.2617       67.40000
    14.3143       78.60000
    14.3669       49.00000
    14.4195       60.30000
    14.4721       66.40000
    14.5247       55.10000
    14.5773       75.60000
    14.6300       62.30000
    14.6826       78.60000
    14.7352       53.10000
    14.7878       47.00000
    14.8404       43.90000
    14.8930       69.40000
    14.9456       57.20000
    14.9982       54.10000
    15.0509       64.30000
    15.1035       64.30000
    15.1561       64.30000
    15.2087       63.30000
    15.2613       47.00000
    15.3139       64.30000
    15.3665       71.50000
    15.4192       63.30000
    15.4718       56.20000
    15.5244       44.90000
    15.5770       67.40000
    15.6296       56.20000
    15.6822       57.20000
    15.7348       52.10000
    15.7874       52.10000
    15.8401       51.10000
    15.8927       65.40000
    15.9453       60.30000
    15.9979       56.20000
    16.0505       59.20000
    16.1031       61.30000
    16.1557       59.20000
    16.2083       69.40000
    16.2610       54.10000
    16.3136       55.10000
    16.3662       47.00000
    16.4188       58.20000
    16.4714       53.10000
    16.5240       58.20000
    16.5766       63.30000
    16.6293       43.90000
    16.6819       59.20000
    16.7345       48.00000
    16.7871       57.20000
    16.8397       74.60000
    16.8923       67.40000
    16.9449      103.1
    16.9975      124.6
    17.0502      188.9
    17.1028      371.7
    17.1554      668.9
    17.2080      706.7
    17.2606      426.9
    17.3132      198.1
    17.3658      120.5
    17.4184       79.70000
    17.4711       66.40000
    17.5237       61.30000
    17.5763       55.10000
    17.6289       61.30000
    17.6815       51.10000
    17.7341       50.00000
    17.7867       51.10000
    17.8394       38.80000
    17.8920       60.30000
    17.9446       50.00000
    17.9972       48.00000
    18.0498       55.10000
    18.1024       50.00000
    18.1550       46.00000
    18.2076       50.00000
    18.2603       48.00000
    18.3129       61.30000
    18.3655       55.10000
    18.4181       46.00000
    18.4707       46.00000
    18.5233       36.80000
    18.5759       48.00000
    18.6286       49.00000
    18.6812       34.70000
    18.7338       55.10000
    18.7864       34.70000
    18.8390       39.80000
    18.8916       49.00000
    18.9442       34.70000
    18.9968       39.80000
    19.0495       51.10000
    19.1021       44.90000
    19.1547       36.80000
    19.2073       50.00000
    19.2599       43.90000
    19.3125       50.00000
    19.3651       47.00000
    19.4177       35.70000
    19.4704       40.80000
    19.5230       53.10000
    19.5756       51.10000
    19.6282       37.80000
    19.6808       43.90000
    19.7334       53.10000
    19.7860       51.10000
    19.8387       47.00000
    19.8913       31.70000
    19.9439       48.00000
    19.9965       40.80000
    20.0491       48.00000
    20.1017       39.80000
    20.1543       52.10000
    20.2069       50.00000
    20.2596       59.20000
    20.3122       42.90000
    20.3648       40.80000
    20.4174       67.40000
    20.4700       64.30000
    20.5226       98.00000
    20.5752      119.5
    20.6278      191
    20.6805      431
    20.7331      937.5
    20.7857     1340.9
    20.8383      923.2
    20.8909      393.2
    20.9435      198.1
    20.9961      129.7
    21.0488       92.90000
    21.1014       85.80000
    21.1540       70.50000
    21.2066       41.90000
    21.2592       53.10000
    21.3118       43.90000
    21.3644       47.00000
    21.4170       39.80000
    21.4697       56.20000
    21.5223       46.00000
    21.5749       38.80000
    21.6275       50.00000
    21.6801       50.00000
    21.7327       37.80000
    21.7853       50.00000
    21.8380       43.90000
    21.8906       37.80000
    21.9432       37.80000
    21.9958       46.00000
    22.0484       42.90000
    22.1010       51.10000
    22.1536       44.90000
    22.2062       46.00000
    22.2589       38.80000
    22.3115       46.00000
    22.3641       55.10000
    22.4167       57.20000
    22.4693       53.10000
    22.5219       91.90000
    22.5745      109.3
    22.6271      221.6
    22.6798      314.5
    22.7324      470.8
    22.7850      407.5
    22.8376      253.3
    22.8902      102.1
    22.9428       72.50000
    22.9954       70.50000
    23.0481       52.10000
    23.1007       56.20000
    23.1533       42.90000
    23.2059       41.90000
    23.2585       49.00000
    23.3111       39.80000
    23.3637       44.90000
    23.4163       48.00000
    23.4690       47.00000
    23.5216       40.80000
    23.5742       44.90000
    23.6268       37.80000
    23.6794       40.80000
    23.7320       47.00000
    23.7846       49.00000
    23.8372       58.20000
    23.8899       65.40000
    23.9425       80.70000
    23.9951      119.5
    24.0477      177.7
    24.1003      188.9
    24.1529      139.9
    24.2055       87.80000
    24.2582       42.90000
    24.3108       43.90000
    24.3634       38.80000
    24.4160       38.80000
    24.4686       36.80000
    24.5212       39.80000
    24.5738       32.70000
    24.6264       23.50000
    24.6791       50.00000
    24.7317       41.90000
    24.7843       44.90000
    24.8369       43.90000
    24.8895       33.70000
    24.9421       55.10000
    24.9947       36.80000
    25.0474       44.90000
    25.1000       54.10000
    25.1526       61.30000
    25.2052       74.60000
    25.2578       81.70000
    25.3104      101.1
    25.3630      167.5
    25.4156      262.5
    25.4683      452.4
    25.5209      897.7
    25.5735     1440
    25.6261     1588
    25.6787     1068.2
    25.7313      542.3
    25.7839      302.3
    25.8365      182.8
    25.8892      108.3
    25.9418       85.80000
    25.9944       68.40000
    26.0470       63.30000
    26.0996       52.10000
    26.1522       46.00000
    26.2048       36.80000
    26.2575       44.90000
    26.3101       41.90000
    26.3627       48.00000
    26.4153       34.70000
    26.4679       46.00000
    26.5205       39.80000
    26.5731       40.80000
    26.6257       41.90000
    26.6784       52.10000
    26.7310       25.50000
    26.7836       30.60000
    26.8362       32.70000
    26.8888       22.50000
    26.9414       33.70000
    26.9940       31.70000
    27.0466       38.80000
    27.0993       39.80000
    27.1519       36.80000
    27.2045       32.70000
    27.2571       37.80000
    27.3097       36.80000
    27.3623       33.70000
    27.4149       36.80000
    27.4676       26.60000
    27.5202       33.70000
    27.5728       36.80000
    27.6254       32.70000
    27.6780       29.60000
    27.7306       31.70000
    27.7832       24.50000
    27.8358       23.50000
    27.8885       33.70000
    27.9411       32.70000
    27.9937       26.60000
    28.0463       34.70000
    28.0989       42.90000
    28.1515       33.70000
    28.2041       26.60000
    28.2568       33.70000
    28.3094       35.70000
    28.3620       29.60000
    28.4146       34.70000
    28.4672       36.80000
    28.5198       36.80000
    28.5724       37.80000
    28.6250       40.80000
    28.6777       35.70000
    28.7303       35.70000
    28.7829       36.80000
    28.8355       24.50000
    28.8881       40.80000
    28.9407       37.80000
    28.9933       37.80000
    29.0459       38.80000
    29.0986       44.90000
    29.1512       42.90000
    29.2038       59.20000
    29.2564       59.20000
    29.3090       62.30000
    29.3616       55.10000
    29.4142       78.60000
    29.4669       86.80000
    29.5195      139.9
    29.5721      201.2
    29.6247      359.5
    29.6773      607.6
    29.7299      970.2
    29.7825     1208.1
    29.8351     1256.1
    29.8878      907.9
    29.9404      500.4
    29.9930      269.6
    30.0456      166.5
    30.0982       91.90000
    30.1508       65.40000
    30.2034       59.20000
    30.2560       41.90000
    30.3087       40.80000
    30.3613       44.90000
    30.4139       33.70000
    30.4665       27.60000
    30.5191       41.90000
    30.5717       24.50000
    30.6243       35.70000
    30.6770       29.60000
    30.7296       34.70000
    30.7822       25.50000
    30.8348       21.40000
    30.8874       28.60000
    30.9400       28.60000
    30.9926       41.90000
    31.0452       38.80000
    31.0979       32.70000
    31.1505       26.60000
    31.2031       36.80000
    31.2557       31.70000
    31.3083       28.60000
    31.3609       36.80000
    31.4135       35.70000
    31.4662       36.80000
    31.5188       31.70000
    31.5714       39.80000
    31.6240       34.70000
    31.6766       25.50000
    31.7292       34.70000
    31.7818       31.70000
    31.8344       41.90000
    31.8871       42.90000
    31.9397       53.10000
    31.9923       63.30000
    32.0449      102.1
    32.0975      163.4
    32.1501      300.2
    32.2027      544.3
    32.2553      558.6
    32.3080      395.2
    32.3606      221.6
    32.4132      129.7
    32.4658       81.70000
    32.5184       56.20000
    32.5710       43.90000
    32.6236       51.10000
    32.6763       38.80000
    32.7289       30.60000
    32.7815       33.70000
    32.8341       27.60000
    32.8867       27.60000
    32.9393       30.60000
    32.9919       32.70000
    33.0445       27.60000
    33.0972       32.70000
    33.1498       18.40000
    33.2024       22.50000
    33.2550       22.50000
    33.3076       22.50000
    33.3602       26.60000
    33.4128       35.70000
    33.4654       31.70000
    33.5181       23.50000
    33.5707       26.60000
    33.6233       25.50000
    33.6759       30.60000
    33.7285       24.50000
    33.7811       29.60000
    33.8337       21.40000
    33.8864       31.70000
    33.9390       26.60000
    33.9916       29.60000
    34.0442       26.60000
    34.0968       29.60000
    34.1494       34.70000
    34.2020       32.70000
    34.2546       26.60000
    34.3073       35.70000
    34.3599       37.80000
    34.4125       42.90000
    34.4651       31.70000
    34.5177       65.40000
    34.5703       65.40000
    34.6229       69.40000
    34.6756       62.30000
    34.7282       44.90000
    34.7808       52.10000
    34.8334       41.90000
    34.8860       36.80000
    34.9386       49.00000
    34.9912       34.70000
    35.0438       46.00000
    35.0965       57.20000
    35.1491       54.10000
    35.2017       50.00000
    35.2543       86.80000
    35.3069       90.90000
    35.3595      164.4
    35.4121      219.6
    35.4647      406.5
    35.5174      714.9
    35.5700     1289.8
    35.6226     1716.7
    35.6752     1446.1
    35.7278      905.8
    35.7804      541.3
    35.8330      297.2
    35.8857      198.1
    35.9383      142
    35.9909      109.3
    36.0435       97.00000
    36.0961       67.40000
    36.1487       73.50000
    36.2013       61.30000
    36.2539       64.30000
    36.3066       87.80000
    36.3592      104.2
    36.4118      126.6
    36.4644      222.6
    36.5170      324.8
    36.5696      464.7
    36.6222      536.2
    36.6748      455.5
    36.7275      298.2
    36.7801      169.5
    36.8327      117.4
    36.8853       80.70000
    36.9379       65.40000
    36.9905       49.00000
    37.0431       41.90000
    37.0958       33.70000
    37.1484       36.80000
    37.2010       26.60000
    37.2536       32.70000
    37.3062       39.80000
    37.3588       31.70000
    37.4114       31.70000
    37.4640       30.60000
    37.5167       32.70000
    37.5693       41.90000
    37.6219       41.90000
    37.6745       44.90000
    37.7271       78.60000
    37.7797      111.3
    37.8323      177.7
    37.8849      313.5
    37.9376      399.3
    37.9902      311.5
    38.0428      186.9
    38.0954      135.8
    38.1480       84.80000
    38.2006       58.20000
    38.2532       54.10000
    38.3059       55.10000
    38.3585       50.00000
    38.4111       53.10000
    38.4637       30.60000
    38.5163       31.70000
    38.5689       27.60000
    38.6215       23.50000
    38.6741       19.40000
    38.7268       18.40000
    38.7794       16.30000
    38.8320       29.60000
    38.8846       31.70000
    38.9372       28.60000
    38.9898       41.90000
    39.0424       40.80000
    39.0951       38.80000
    39.1477       63.30000
    39.2003       65.40000
    39.2529      136.8
    39.3055      197.1
    39.3581      203.2
    39.4107      193
    39.4633      146
    39.5160      130.7
    39.5686      166.5
    39.6212      213.4
    39.6738      305.4
    39.7264      369.7
    39.7790      439.1
    39.8316      439.1
    39.8842      381.9
    39.9369      195.1
    39.9895      138.9
    40.0421       82.70000
    40.0947       66.40000
    40.1473       55.10000
    40.1999       52.10000
    40.2525       37.80000
    40.3052       50.00000
    40.3578       28.60000
    40.4104       24.50000
    40.4630       26.60000
    40.5156       22.50000
    40.5682       28.60000
    40.6208       33.70000
    40.6734       23.50000
    40.7261       18.40000
    40.7787       26.60000
    40.8313       31.70000
    40.8839       16.30000
    40.9365       20.40000
    40.9891       27.60000
    41.0417       22.50000
    41.0943       20.40000
    41.1470       15.30000
    41.1996       21.40000
    41.2522       17.40000
    41.3048       26.60000
    41.3574       23.50000
    41.4100       22.50000
    41.4626       21.40000
    41.5153       27.60000
    41.5679       28.60000
    41.6205       22.50000
    41.6731       22.50000
    41.7257       25.50000
    41.7783       26.60000
    41.8309       30.60000
    41.8835       39.80000
    41.9362       41.90000
    41.9888       49.00000
    42.0414       75.60000
    42.0940      111.3
    42.1466      166.5
    42.1992      241
    42.2518      293.1
    42.3045      245.1
    42.3571      166.5
    42.4097      133.8
    42.4623       80.70000
    42.5149       59.20000
    42.5675       44.90000
    42.6201       29.60000
    42.6727       33.70000
    42.7254       24.50000
    42.7780       30.60000
    42.8306       28.60000
    42.8832       22.50000
    42.9358       20.40000
    42.9884       18.40000
    43.0410       24.50000
    43.0936       24.50000
    43.1463       21.40000
    43.1989       15.30000
    43.2515       16.30000
    43.3041       24.50000
    43.3567       16.30000
    43.4093       12.30000
    43.4619       19.40000
    43.5146       14.30000
    43.5672       15.30000
    43.6198       19.40000
    43.6724       20.40000
    43.7250       22.50000
    43.7776       16.30000
    43.8302       23.50000
    43.8828       21.40000
    43.9355       17.40000
    43.9881       25.50000
    44.0407       17.40000
    44.0933       20.40000
    44.1459       25.50000
    44.1985       28.60000
    44.2511       30.60000
    44.3037       37.80000
    44.3564       71.50000
    44.4090       85.80000
    44.4616      107.2
    44.5142       96.00000
    44.5668       67.40000
    44.6194       37.80000
    44.6720       46.00000
    44.7247       33.70000
    44.7773       29.60000
    44.8299       47.00000
    44.8825       56.20000
    44.9351       54.10000
    44.9877       81.70000
    45.0403       68.40000
    45.0929       58.20000
    45.1456       42.90000
    45.1982       38.80000
    45.2508       26.60000
    45.3034       28.60000
    45.3560       25.50000
    45.4086       24.50000
    45.4612       18.40000
    45.5139       21.40000
    45.5665       25.50000
    45.6191       27.60000
    45.6717       12.30000
    45.7243       25.50000
    45.7769       15.30000
    45.8295       18.40000
    45.8821       23.50000
    45.9348       23.50000
    45.9874       23.50000
    46.0400       13.30000
    46.0926       17.40000
    46.1452       25.50000
    46.1978       33.70000
    46.2504       36.80000
    46.3030       30.60000
    46.3557       43.90000
    46.4083       42.90000
    46.4609       50.00000
    46.5135       36.80000
    46.5661       39.80000
    46.6187       21.40000
    46.6713       22.50000
    46.7240       23.50000
    46.7766       24.50000
    46.8292       27.60000
    46.8818       15.30000
    46.9344       23.50000
    46.9870       15.30000
    47.0396       19.40000
    47.0922       15.30000
    47.1449       20.40000
    47.1975       12.30000
    47.2501       12.30000
    47.3027       23.50000
    47.3553       17.40000
    47.4079       21.40000
    47.4605       18.40000
    47.5131       19.40000
    47.5658       18.40000
    47.6184       16.30000
    47.6710       14.30000
    47.7236       24.50000
    47.7762       16.30000
    47.8288       16.30000
    47.8814       14.30000
    47.9341       29.60000
    47.9867       27.60000
    48.0393       36.80000
    48.0919       28.60000
    48.1445       42.90000
    48.1971       39.80000
    48.2497       25.50000
    48.3023       25.50000
    48.3550       20.40000
    48.4076       16.30000
    48.4602       20.40000
    48.5128       16.30000
    48.5654       20.40000
    48.6180       21.40000
    48.6706       16.30000
    48.7233       24.50000
    48.7759       23.50000
    48.8285       24.50000
    48.8811       30.60000
    48.9337       34.70000
    48.9863       39.80000
    49.0389       40.80000
    49.0915       66.40000
    49.1442       96.00000
    49.1968      143
    49.2494      175.7
    49.3020      169.5
    49.3546      147.1
    49.4072       92.90000
    49.4598       89.90000
    49.5124       88.80000
    49.5651       62.30000
    49.6177       43.90000
    49.6703       53.10000
    49.7229       43.90000
    49.7755       34.70000
    49.8281       38.80000
    49.8807       41.90000
    49.9334       52.10000
    49.9860       55.10000
    50.0386       83.70000
    50.0912       84.80000
    50.1438      104.2
    50.1964      107.2
    50.2490      128.7
    50.3016      187.9
    50.3543      208.3
    50.4069      231.8
    50.4595      200.2
    50.5121      184.8
    50.5647      203.2
    50.6173      146
    50.6699      114.4
    50.7225       88.80000
    50.7752       65.40000
    50.8278       52.10000
    50.8804       31.70000
    50.9330       31.70000
    50.9856       37.80000
    51.0382       33.70000
    51.0908       29.60000
    51.1435       16.30000
    51.1961       23.50000
    51.2487       16.30000
    51.3013       21.40000
    51.3539       23.50000
    51.4065       17.40000
    51.4591       29.60000
    51.5117       25.50000
    51.5644       19.40000
    51.6170       24.50000
    51.6696       26.60000
    51.7222       31.70000
    51.7748       21.40000
    51.8274       21.40000
    51.8800       27.60000
    51.9327       28.60000
    51.9853       41.90000
    52.0379       33.70000
    52.0905       31.70000
    52.1431       54.10000
    52.1957       53.10000
    52.2483       82.70000
    52.3009       88.80000
    52.3536      147.1
    52.4062      199.1
    52.4588      305.4
    52.5114      485.1
    52.5640      536.2
    52.6166      553.5
    52.6692      460.6
    52.7218      307.4
    52.7745      276.8
    52.8271      218.5
    52.8797      164.4
    52.9323      130.7
    52.9849       88.80000
    53.0375       74.60000
    53.0901       68.40000
    53.1428       63.30000
    53.1954       54.10000
    53.2480       50.00000
    53.3006       46.00000
    53.3532       39.80000
    53.4058       31.70000
    53.4584       21.40000
    53.5110       33.70000
    53.5637       28.60000
    53.6163       18.40000
    53.6689       18.40000
    53.7215       18.40000
    53.7741       20.40000
    53.8267       19.40000
    53.8793       27.60000
    53.9319       21.40000
    53.9846       27.60000
    54.0372       25.50000
    54.0898       22.50000
    54.1424       20.40000
    54.1950       23.50000
    54.2476       23.50000
    54.3002       18.40000
    54.3529       20.40000
    54.4055       22.50000
    54.4581       23.50000
    54.5107       25.50000
    54.5633       33.70000
    54.6159       39.80000
    54.6685       36.80000
    54.7211       40.80000
    54.7738       58.20000
    54.8264       63.30000
    54.8790      132.8
    54.9316      179.7
    54.9842      253.3
    55.0368      218.5
    55.0894      191
    55.1421      125.6
    55.1947      125.6
    55.2473      109.3
    55.2999      104.2
    55.3525      126.6
    55.4051      188.9
    55.4577      260.4
    55.5103      287
    55.5630      255.3
    55.6156      188.9
    55.6682      147.1
    55.7208      116.4
    55.7734       69.40000
    55.8260       54.10000
    55.8786       48.00000
    55.9312       38.80000
    55.9839       34.70000
    56.0365       31.70000
    56.0891       42.90000
    56.1417       38.80000
    56.1943       36.80000
    56.2469       35.70000
    56.2995       47.00000
    56.3522       57.20000
    56.4048       74.60000
    56.4574       74.60000
    56.5100       78.60000
    56.5626      147.1
    56.6152      184.8
    56.6678      254.3
    56.7204      261.4
    56.7731      287
    56.8257      212.4
    56.8783      164.4
    56.9309      109.3
    56.9835       87.80000
    57.0361       60.30000
    57.0887       51.10000
    57.1413       38.80000
    57.1940       40.80000
    57.2466       35.70000
    57.2992       27.60000
    57.3518       30.60000
    57.4044       40.80000
    57.4570       38.80000
    57.5096       40.80000
    57.5623       54.10000
    57.6149       54.10000
    57.6675       43.90000
    57.7201       34.70000
    57.7727       30.60000
    57.8253       27.60000
    57.8779       39.80000
    57.9305       32.70000
    57.9832       29.60000
    58.0358       33.70000
    58.0884       48.00000
    58.1410       64.30000
    58.1936       94.00000
    58.2462      115.4
    58.2988      155.2
    58.3515      172.6
    58.4041      156.3
    58.4567      126.6
    58.5093       96.00000
    58.5619       71.50000
    58.6145       53.10000
    58.6671       43.90000
    58.7197       27.60000
    58.7724       39.80000
    58.8250       33.70000
    58.8776       31.70000
    58.9302       28.60000
    58.9828       25.50000
    59.0354       22.50000
    59.0880       24.50000
    59.1406       33.70000
    59.1933       18.40000
    59.2459       20.40000
    59.2985       17.40000
    59.3511       32.70000
    59.4037       13.30000
    59.4563       22.50000
    59.5089       20.40000
    59.5616       14.30000
    59.6142       27.60000
    59.6668       32.70000
    59.7194       21.40000
    59.7720       26.60000
    59.8246       20.40000
    59.8772       20.40000
    59.9298       15.30000
    59.9825       21.40000
    60.0351       32.70000
    60.0877       16.30000
    60.1403       24.50000
    60.1929       28.60000
    60.2455       13.30000
    60.2981       20.40000
    60.3507       18.40000
    60.4034       18.40000
    60.4560       15.30000
    60.5086        9.20000
    60.5612       18.40000
    60.6138       18.40000
    60.6664       23.50000
    60.7190       23.50000
    60.7717       16.30000
    60.8243       28.60000
    60.8769       17.40000
    60.9295       16.30000
    60.9821       21.40000
    61.0347       26.60000
    61.0873       22.50000
    61.1399       26.60000
    61.1926       27.60000
    61.2452       31.70000
    61.2978       26.60000
    61.3504       47.00000
    61.4030       51.10000
    61.4556       63.30000
    61.5082       81.70000
    61.5609       86.80000
    61.6135      129.7
    61.6661      169.5
    61.7187      265.5
    61.7713      291.1
    61.8239      336
    61.8765      356.4
    61.9291      352.3
    61.9818      318.6
    62.0344      310.5
    62.0870      236.9
    62.1396      293.1
    62.1922      223.7
    62.2448      161.4
    62.2974      136.8
    62.3500      102.1
    62.4027       71.50000
    62.4553       60.30000
    62.5079       56.20000
    62.5605       52.10000
    62.6131       32.70000
    62.6657       43.90000
    62.7183       25.50000
    62.7710       21.40000
    62.8236       25.50000
    62.8762       27.60000
    62.9288       17.40000
    62.9814       37.80000
    63.0340       19.40000
    63.0866       26.60000
    63.1392       30.60000
    63.1919       20.40000
    63.2445       23.50000
    63.2971       18.40000
    63.3497       18.40000
    63.4023       16.30000
    63.4549       25.50000
    63.5075       17.40000
    63.5601       26.60000
    63.6128       28.60000
    63.6654       21.40000
    63.7180       30.60000
    63.7706       18.40000
    63.8232       25.50000
    63.8758       31.70000
    63.9284       53.10000
    63.9811       58.20000
    64.0337       56.20000
    64.0863       60.30000
    64.1389       42.90000
    64.1915       35.70000
    64.2441       33.70000
    64.2967       34.70000
    64.3493       22.50000
    64.4020       28.60000
    64.4546       24.50000
    64.5072       25.50000
    64.5598       23.50000
    64.6124       22.50000
    64.6650       22.50000
    64.7176       20.40000
    64.7703       32.70000
    64.8229       26.60000
    64.8755       20.40000
    64.9281       26.60000
    64.9807       21.40000
    65.0333       21.40000
    65.0859       24.50000
    65.1385       17.40000
    65.1912       20.40000
    65.2438       20.40000
    65.2964       21.40000
    65.3490       23.50000
    65.4016       32.70000
    65.4542       19.40000
    65.5068       19.40000
    65.5594       31.70000
    65.6121       14.30000
    65.6647       29.60000
    65.7173       40.80000
    65.7699       36.80000
    65.8225       52.10000
    65.8751       46.00000
    65.9277       52.10000
    65.9804       56.20000
    66.0330       58.20000
    66.0856       72.50000
    66.1382       48.00000
    66.1908       51.10000
    66.2434       71.50000
    66.2960       97.00000
    66.3486      100.1
    66.4013       88.80000
    66.4539       89.90000
    66.5065       70.50000
    66.5591       56.20000
    66.6117       36.80000
    66.6643       35.70000
    66.7169       32.70000
    66.7695       29.60000
    66.8222       16.30000
    66.8748       24.50000
    66.9274       19.40000
    66.9800       17.40000
    67.0326       33.70000
    67.0852       22.50000
    67.1378       27.60000
    67.1905       40.80000
    67.2431       41.90000
    67.2957       56.20000
    67.3483       51.10000
    67.4009       84.80000
    67.4535       88.80000
    67.5061       98.00000
    67.5587       80.70000
    67.6114       66.40000
    67.6640       63.30000
    67.7166       47.00000
    67.7692       34.70000
    67.8218       38.80000
    67.8744       39.80000
    67.9270       36.80000
    67.9797       41.90000
    68.0323       42.90000
    68.0849       39.80000
    68.1375       40.80000
    68.1901       51.10000
    68.2427       52.10000
    68.2953       48.00000
    68.3479       41.90000
    68.4006       24.50000
    68.4532       33.70000
    68.5058       29.60000
    68.5584       20.40000
    68.6110       23.50000
    68.6636       27.60000
    68.7162       18.40000
    68.7688       14.30000
    68.8215       19.40000
    68.8741       14.30000
    68.9267       19.40000
    68.9793       27.60000
    69.0319       19.40000
    69.0845       27.60000
    69.1371       22.50000
    69.1898       32.70000
    69.2424       32.70000
    69.2950       38.80000
    69.3476       40.80000
    69.4002       52.10000
    69.4528       56.20000
    69.5054       48.00000
    69.5580       50.00000
    69.6107       52.10000
    69.6633       26.60000
    69.7159       25.50000
    69.7685       23.50000
    69.8211       46.00000
    69.8737       39.80000
    69.9263       50.00000
    69.9789       65.40000
    70.0316       68.40000
    70.0842      110.3
    70.1368      154.2
    70.1894      146
    70.2420      152.2
    70.2946      120.5
    70.3472      107.2
    70.3999       63.30000
    70.4525       50.00000
    70.5051       34.70000
    70.5577       35.70000
    70.6103       22.50000
    70.6629       32.70000
    70.7155       29.60000
    70.7681       26.60000
    70.8208       19.40000
    70.8734       22.50000
    70.9260       16.30000
    70.9786       26.60000
    71.0312       22.50000
    71.0838       20.40000
    71.1364       19.40000
    71.1891       33.70000
    71.2417       30.60000
    71.2943       38.80000
    71.3469       40.80000
    71.3995       58.20000
    71.4521       58.20000
    71.5047       47.00000
    71.5573       50.00000
    71.6100       48.00000
    71.6626       48.00000
    71.7152       43.90000
    71.7678       35.70000
    71.8204       53.10000
    71.8730       58.20000
    71.9256       65.40000
    71.9782       75.60000
    72.0309       60.30000
    72.0835       64.30000
    72.1361       82.70000
    72.1887      100.1
    72.2413      107.2
    72.2939      129.7
    72.3465      117.4
    72.3992      142
    72.4518      120.5
    72.5044      112.3
    72.5570       88.80000
    72.6096       66.40000
    72.6622       55.10000
    72.7148       44.90000
    72.7674       38.80000
    72.8201       24.50000
    72.8727       27.60000
    72.9253       12.30000
    72.9779       26.60000
    73.0305       36.80000
    73.0831       20.40000
    73.1357       22.50000
    73.1883       28.60000
    73.2410       29.60000
    73.2936       33.70000
    73.3462       22.50000
    73.3988       36.80000
    73.4514       27.60000
    73.5040       39.80000
    73.5566       44.90000
    73.6093       35.70000
    73.6619       48.00000
    73.7145       24.50000
    73.7671       34.70000
    73.8197       20.40000
    73.8723       22.50000
    73.9249       28.60000
    73.9775       19.40000
    74.0302       30.60000
    74.0828       18.40000
    74.1354       33.70000
    74.1880       41.90000
    74.2406       43.90000
    74.2932       69.40000
    74.3458       86.80000
    74.3985       88.80000
    74.4511       92.90000
    74.5037       87.80000
    74.5563       50.00000
    74.6089       53.10000
    74.6615       46.00000
    74.7141       30.60000
    74.7667       34.70000
    74.8194       25.50000
    74.8720       25.50000
    74.9246       35.70000
    74.9772       32.70000
    75.0298       26.60000
    75.0824       33.70000
    75.1350       43.90000
    75.1876       32.70000
    75.2403       36.80000
    75.2929       25.50000
    75.3455       32.70000
    75.3981       34.70000
    75.4507       31.70000
    75.5033       39.80000
    75.5559       28.60000
    75.6086       33.70000
    75.6612       40.80000
    75.7138       47.00000
    75.7664       41.90000
    75.8190       32.70000
    75.8716       41.90000
    75.9242       40.80000
    75.9768       22.50000
    76.0295       39.80000
    76.0821       31.70000
    76.1347       39.80000
    76.1873       36.80000
    76.2399       37.80000
    76.2925       32.70000
    76.3451       36.80000
    76.3977       21.40000
    76.4504       13.30000
    76.5030       21.40000
    76.5556       26.60000
    76.6082       11.20000
    76.6608       16.30000
    76.7134       14.30000
    76.7660       17.40000
    76.8187       14.30000
    76.8713       21.40000
    76.9239       18.40000
    76.9765       18.40000
    77.0291       23.50000
    77.0817       27.60000
    77.1343       19.40000
    77.1869       28.60000
    77.2396       29.60000
    77.2922       26.60000
    77.3448       21.40000
    77.3974       27.60000
    77.4500       27.60000
    77.5026       31.70000
    77.5552       44.90000
    77.6079       44.90000
    77.6605       63.30000
    77.7131       55.10000
    77.7657       50.00000
    77.8183       69.40000
    77.8709       74.60000
    77.9235       66.40000
    77.9761       73.50000
    78.0288       77.60000
    78.0814       57.20000
    78.1340       59.20000
    78.1866       56.20000
    78.2392       32.70000
    78.2918       41.90000
    78.3444       21.40000
    78.3970       29.60000
    78.4497       33.70000
    78.5023       19.40000
    78.5549       15.30000
    78.6075       22.50000
    78.6601       14.30000
    78.7127       18.40000
    78.7653       11.20000
    78.8180       14.30000
    78.8706       25.50000
    78.9232       18.40000
    78.9758       16.30000
    79.0284       10.20000
    79.0810       11.20000
    79.1336       18.40000
    79.1862       12.30000
    79.2389       15.30000
    79.2915       16.30000
    79.3441        9.20000
    79.3967       13.30000
    79.4493       15.30000
    79.5019       18.40000
    79.5545       16.30000
    79.6071       14.30000
    79.6598       18.40000
    79.7124       13.30000
    79.7650       20.40000
    79.8176       15.30000
    79.8702       18.40000
    79.9228       18.40000
    79.9754       18.40000
    80.0070       26.60000