File: 02-Raw_data/LFP/LFP_e_180C_15min.xy
! Initial file:   O:\a) Research area\01 - Batteries & Supercaps\EES Research LINES\RL2018001 Advanced Cathodes\Results\Maha-Joseba\Automation_paper\XRD\LFP_05_180-15\MI-JO_LFP_221110_05.xy
! Initial format:   1
! WAVE (A):      1.54060     1.54060     1.00000
! REM : data have been multiplied by     1.0000
! X_data : 2 Theta (deg.)
! Y_data : Intensity (arb. units)
!     X         Y
!--------------------------------------------------------------------------------
    10.0000       84.80000
    10.0526      101.1
    10.1052       84.80000
    10.1578      110.3
    10.2105       98.00000
    10.2631      104.2
    10.3157      103.1
    10.3683      103.1
    10.4209       89.90000
    10.4735       87.80000
    10.5261       72.50000
    10.5787       76.60000
    10.6314       90.90000
    10.6840       97.00000
    10.7366       83.70000
    10.7892       92.90000
    10.8418      104.2
    10.8944       90.90000
    10.9470      103.1
    10.9996       87.80000
    11.0523       77.60001
    11.1049      102.1
    11.1575       85.80000
    11.2101       74.60000
    11.2627       94.00000
    11.3153       83.70000
    11.3679       91.90000
    11.4206       63.30000
    11.4732       80.70000
    11.5258       89.90000
    11.5784       70.50000
    11.6310       73.50000
    11.6836       73.50000
    11.7362       77.60001
    11.7888       72.50000
    11.8415       70.50000
    11.8941       74.60000
    11.9467       90.90000
    11.9993       70.50000
    12.0519       78.60000
    12.1045       85.80000
    12.1571       74.60000
    12.2098       71.50000
    12.2624       79.70000
    12.3150       74.60000
    12.3676       77.60001
    12.4202       67.40000
    12.4728       63.30000
    12.5254       73.50000
    12.5780       77.60001
    12.6307       68.40000
    12.6833       80.70000
    12.7359       78.60000
    12.7885       70.50000
    12.8411       75.60000
    12.8937       68.40000
    12.9463       72.50000
    12.9989       68.40000
    13.0516       68.40000
    13.1042       83.70000
    13.1568       78.60000
    13.2094       64.30000
    13.2620       74.60000
    13.3146       65.40000
    13.3672       65.40000
    13.4199       69.40000
    13.4725       74.60000
    13.5251       69.40000
    13.5777       64.30000
    13.6303       63.30000
    13.6829       68.40000
    13.7355       67.40000
    13.7881       76.60000
    13.8408       53.10000
    13.8934       69.40000
    13.9460       54.10000
    13.9986       67.40000
    14.0512       58.20000
    14.1038       59.20000
    14.1564       90.90000
    14.2090       60.30000
    14.2617       53.10000
    14.3143       51.10000
    14.3669       52.10000
    14.4195       77.60001
    14.4721       66.39999
    14.5247       50.00000
    14.5773       47.00000
    14.6300       61.30000
    14.6826       63.30000
    14.7352       59.20000
    14.7878       64.30000
    14.8404       65.40000
    14.8930       47.00000
    14.9456       66.39999
    14.9982       51.10000
    15.0509       70.50000
    15.1035       68.40000
    15.1561       57.20000
    15.2087       62.30000
    15.2613       51.10000
    15.3139       71.50000
    15.3665       55.10000
    15.4192       51.10000
    15.4718       41.90000
    15.5244       54.10000
    15.5770       49.00000
    15.6296       52.10000
    15.6822       55.10000
    15.7348       68.40000
    15.7874       59.20000
    15.8401       61.30000
    15.8927       52.10000
    15.9453       44.90000
    15.9979       54.10000
    16.0505       50.00000
    16.1031       42.90000
    16.1557       46.00000
    16.2083       44.90000
    16.2610       59.20000
    16.3136       49.00000
    16.3662       71.50000
    16.4188       43.90000
    16.4714       60.30000
    16.5240       52.10000
    16.5766       56.20000
    16.6293       58.20000
    16.6819       46.00000
    16.7345       55.10000
    16.7871       61.30000
    16.8397       68.40000
    16.8923       79.70000
    16.9449       79.70000
    16.9975      107.2
    17.0502      177.7
    17.1028      397.3
    17.1554      691.4
    17.2080      752.7
    17.2606      409.5
    17.3132      182.8
    17.3658      121.5
    17.4184       80.70000
    17.4711       54.10000
    17.5237       56.20000
    17.5763       59.20000
    17.6289       48.00000
    17.6815       52.10000
    17.7341       55.10000
    17.7867       49.00000
    17.8394       47.00000
    17.8920       41.90000
    17.9446       49.00000
    17.9972       49.00000
    18.0498       49.00000
    18.1024       31.70000
    18.1550       42.90000
    18.2076       50.00000
    18.2603       56.20000
    18.3129       47.00000
    18.3655       46.00000
    18.4181       43.90000
    18.4707       28.60000
    18.5233       29.60000
    18.5759       46.00000
    18.6286       44.90000
    18.6812       49.00000
    18.7338       43.90000
    18.7864       52.10000
    18.8390       39.80000
    18.8916       48.00000
    18.9442       42.90000
    18.9968       51.10000
    19.0495       42.90000
    19.1021       37.80000
    19.1547       33.70000
    19.2073       54.10000
    19.2599       43.90000
    19.3125       33.70000
    19.3651       44.90000
    19.4177       42.90000
    19.4704       35.70000
    19.5230       35.70000
    19.5756       59.20000
    19.6282       35.70000
    19.6808       47.00000
    19.7334       52.10000
    19.7860       33.70000
    19.8387       38.80000
    19.8913       36.80000
    19.9439       47.00000
    19.9965       49.00000
    20.0491       60.30000
    20.1017       43.90000
    20.1543       57.20000
    20.2069       34.70000
    20.2596       36.80000
    20.3122       46.00000
    20.3648       46.00000
    20.4174       56.20000
    20.4700       74.60000
    20.5226      103.1
    20.5752      117.4
    20.6278      190
    20.6805      378.9
    20.7331      796.6
    20.7857     1340.9
    20.8383     1006.9
    20.8909      479
    20.9435      217.5
    20.9961      121.5
    21.0488       90.90000
    21.1014       55.10000
    21.1540       66.39999
    21.2066       52.10000
    21.2592       51.10000
    21.3118       41.90000
    21.3644       42.90000
    21.4170       43.90000
    21.4697       34.70000
    21.5223       40.80000
    21.5749       34.70000
    21.6275       35.70000
    21.6801       36.80000
    21.7327       37.80000
    21.7853       35.70000
    21.8380       36.80000
    21.8906       37.80000
    21.9432       43.90000
    21.9958       47.00000
    22.0484       36.80000
    22.1010       40.80000
    22.1536       51.10000
    22.2062       35.70000
    22.2589       49.00000
    22.3115       57.20000
    22.3641       51.10000
    22.4167       52.10000
    22.4693       42.90000
    22.5219       66.39999
    22.5745      112.3
    22.6271      230.8
    22.6798      349.3
    22.7324      471.8
    22.7850      372.8
    22.8376      220.6
    22.8902      117.4
    22.9428       89.90000
    22.9954       55.10000
    23.0481       57.20000
    23.1007       53.10000
    23.1533       48.00000
    23.2059       34.70000
    23.2585       44.90000
    23.3111       40.80000
    23.3637       35.70000
    23.4163       40.80000
    23.4690       32.70000
    23.5216       48.00000
    23.5742       35.70000
    23.6268       43.90000
    23.6794       44.90000
    23.7320       41.90000
    23.7846       56.20000
    23.8372       52.10000
    23.8899       48.00000
    23.9425       73.50000
    23.9951      119.5
    24.0477      168.5
    24.1003      173.6
    24.1529      136.8
    24.2055       84.80000
    24.2582       66.39999
    24.3108       44.90000
    24.3634       54.10000
    24.4160       40.80000
    24.4686       23.50000
    24.5212       41.90000
    24.5738       44.90000
    24.6264       37.80000
    24.6791       32.70000
    24.7317       34.70000
    24.7843       44.90000
    24.8369       38.80000
    24.8895       41.90000
    24.9421       43.90000
    24.9947       33.70000
    25.0474       32.70000
    25.1000       46.00000
    25.1526       57.20000
    25.2052       59.20000
    25.2578       78.60000
    25.3104       96.00000
    25.3630      150.1
    25.4156      240
    25.4683      409.5
    25.5209      866
    25.5735     1506.3
    25.6261     1704.5
    25.6787     1045.8
    25.7313      587.2
    25.7839      306.4
    25.8365      160.3
    25.8892      104.2
    25.9418       97.00000
    25.9944       59.20000
    26.0470       51.10000
    26.0996       49.00000
    26.1522       59.20000
    26.2048       37.80000
    26.2575       53.10000
    26.3101       37.80000
    26.3627       30.60000
    26.4153       38.80000
    26.4679       32.70000
    26.5205       34.70000
    26.5731       31.70000
    26.6257       33.70000
    26.6784       24.50000
    26.7310       28.60000
    26.7836       37.80000
    26.8362       39.80000
    26.8888       31.70000
    26.9414       40.80000
    26.9940       29.60000
    27.0466       32.70000
    27.0993       30.60000
    27.1519       39.80000
    27.2045       41.90000
    27.2571       25.50000
    27.3097       32.70000
    27.3623       29.60000
    27.4149       33.70000
    27.4676       24.50000
    27.5202       28.60000
    27.5728       32.70000
    27.6254       35.70000
    27.6780       28.60000
    27.7306       36.80000
    27.7832       31.70000
    27.8358       23.50000
    27.8885       29.60000
    27.9411       31.70000
    27.9937       31.70000
    28.0463       35.70000
    28.0989       30.60000
    28.1515       31.70000
    28.2041       38.80000
    28.2568       28.60000
    28.3094       39.80000
    28.3620       44.90000
    28.4146       38.80000
    28.4672       31.70000
    28.5198       23.50000
    28.5724       38.80000
    28.6250       46.00000
    28.6777       39.80000
    28.7303       31.70000
    28.7829       31.70000
    28.8355       37.80000
    28.8881       31.70000
    28.9407       30.60000
    28.9933       32.70000
    29.0459       41.90000
    29.0986       39.80000
    29.1512       35.70000
    29.2038       46.00000
    29.2564       57.20000
    29.3090       49.00000
    29.3616       55.10000
    29.4142       86.80000
    29.4669       97.00000
    29.5195      148.1
    29.5721      203.2
    29.6247      311.5
    29.6773      550.4
    29.7299     1019.2
    29.7825     1318.4
    29.8351     1268.4
    29.8878      910.9
    29.9404      522.9
    29.9930      266.5
    30.0456      158.3
    30.0982      102.1
    30.1508       60.30000
    30.2034       58.20000
    30.2560       41.90000
    30.3087       38.80000
    30.3613       37.80000
    30.4139       41.90000
    30.4665       42.90000
    30.5191       39.80000
    30.5717       41.90000
    30.6243       47.00000
    30.6770       22.50000
    30.7296       32.70000
    30.7822       21.40000
    30.8348       33.70000
    30.8874       33.70000
    30.9400       32.70000
    30.9926       30.60000
    31.0452       37.80000
    31.0979       25.50000
    31.1505       31.70000
    31.2031       17.40000
    31.2557       25.50000
    31.3083       32.70000
    31.3609       23.50000
    31.4135       21.40000
    31.4662       33.70000
    31.5188       31.70000
    31.5714       23.50000
    31.6240       31.70000
    31.6766       26.60000
    31.7292       47.00000
    31.7818       27.60000
    31.8344       34.70000
    31.8871       39.80000
    31.9397       47.00000
    31.9923       71.50000
    32.0449      109.3
    32.0975      168.5
    32.1501      327.8
    32.2027      528
    32.2553      584.2
    32.3080      411.6
    32.3606      246.1
    32.4132      146
    32.4658       99.10000
    32.5184       56.20000
    32.5710       55.10000
    32.6236       44.90000
    32.6763       29.60000
    32.7289       29.60000
    32.7815       33.70000
    32.8341       34.70000
    32.8867       33.70000
    32.9393       23.50000
    32.9919       16.30000
    33.0445       16.30000
    33.0972       24.50000
    33.1498       25.50000
    33.2024       21.40000
    33.2550       27.60000
    33.3076       24.50000
    33.3602       32.70000
    33.4128       23.50000
    33.4654       26.60000
    33.5181       21.40000
    33.5707       21.40000
    33.6233       17.40000
    33.6759       17.40000
    33.7285       28.60000
    33.7811       33.70000
    33.8337       30.60000
    33.8864       19.40000
    33.9390       23.50000
    33.9916       32.70000
    34.0442       39.80000
    34.0968       33.70000
    34.1494       19.40000
    34.2020       19.40000
    34.2546       32.70000
    34.3073       36.80000
    34.3599       47.00000
    34.4125       29.60000
    34.4651       38.80000
    34.5177       51.10000
    34.5703       61.30000
    34.6229       56.20000
    34.6756       57.20000
    34.7282       52.10000
    34.7808       41.90000
    34.8334       34.70000
    34.8860       49.00000
    34.9386       38.80000
    34.9912       29.60000
    35.0438       32.70000
    35.0965       36.80000
    35.1491       57.20000
    35.2017       63.30000
    35.2543       88.80000
    35.3069      119.5
    35.3595      140.9
    35.4121      209.4
    35.4647      389.1
    35.5174      742.4
    35.5700     1272.5
    35.6226     1727.9
    35.6752     1546.2
    35.7278      917.1
    35.7804      516.7
    35.8330      312.5
    35.8857      207.3
    35.9383      133.8
    35.9909       88.80000
    36.0435       81.70000
    36.0961       77.60001
    36.1487       60.30000
    36.2013       70.50000
    36.2539       53.10000
    36.3066       73.50000
    36.3592       79.70000
    36.4118      124.6
    36.4644      188.9
    36.5170      310.5
    36.5696      496.3
    36.6222      563.7
    36.6748      427.9
    36.7275      278.8
    36.7801      167.5
    36.8327      115.4
    36.8853       80.70000
    36.9379       68.40000
    36.9905       35.70000
    37.0431       38.80000
    37.0958       29.60000
    37.1484       29.60000
    37.2010       33.70000
    37.2536       29.60000
    37.3062       31.70000
    37.3588       27.60000
    37.4114       33.70000
    37.4640       36.80000
    37.5167       38.80000
    37.5693       31.70000
    37.6219       62.30000
    37.6745       51.10000
    37.7271       60.30000
    37.7797      134.8
    37.8323      166.5
    37.8849      314.5
    37.9376      372.8
    37.9902      278.8
    38.0428      206.3
    38.0954      101.1
    38.1480       78.60000
    38.2006       56.20000
    38.2532       66.39999
    38.3059       48.00000
    38.3585       52.10000
    38.4111       33.70000
    38.4637       35.70000
    38.5163       28.60000
    38.5689       21.40000
    38.6215       24.50000
    38.6741       27.60000
    38.7268       29.60000
    38.7794       25.50000
    38.8320       29.60000
    38.8846       28.60000
    38.9372       25.50000
    38.9898       30.60000
    39.0424       36.80000
    39.0951       38.80000
    39.1477       61.30000
    39.2003       74.60000
    39.2529      127.7
    39.3055      218.5
    39.3581      255.3
    39.4107      203.2
    39.4633      164.4
    39.5160      118.5
    39.5686      138.9
    39.6212      217.5
    39.6738      344.2
    39.7264      363.6
    39.7790      477.9
    39.8316      446.3
    39.8842      308.4
    39.9369      213.4
    39.9895      129.7
    40.0421       98.00000
    40.0947       56.20000
    40.1473       50.00000
    40.1999       39.80000
    40.2525       30.60000
    40.3052       23.50000
    40.3578       33.70000
    40.4104       26.60000
    40.4630       29.60000
    40.5156       27.60000
    40.5682       18.40000
    40.6208       29.60000
    40.6734       25.50000
    40.7261       10.20000
    40.7787       28.60000
    40.8313       23.50000
    40.8839       18.40000
    40.9365       21.40000
    40.9891       22.50000
    41.0417       15.30000
    41.0943       22.50000
    41.1470       26.60000
    41.1996       19.40000
    41.2522       23.50000
    41.3048       22.50000
    41.3574       18.40000
    41.4100       27.60000
    41.4626       15.30000
    41.5153       16.30000
    41.5679       26.60000
    41.6205       25.50000
    41.6731       15.30000
    41.7257       23.50000
    41.7783       23.50000
    41.8309       32.70000
    41.8835       29.60000
    41.9362       35.70000
    41.9888       43.90000
    42.0414       56.20000
    42.0940       94.00000
    42.1466      159.3
    42.1992      250.2
    42.2518      326.8
    42.3045      277.8
    42.3571      194
    42.4097      108.3
    42.4623       64.30000
    42.5149       46.00000
    42.5675       36.80000
    42.6201       40.80000
    42.6727       34.70000
    42.7254       28.60000
    42.7780       22.50000
    42.8306       26.60000
    42.8832       19.40000
    42.9358       20.40000
    42.9884       14.30000
    43.0410       24.50000
    43.0936       14.30000
    43.1463       19.40000
    43.1989       16.30000
    43.2515       18.40000
    43.3041       18.40000
    43.3567       16.30000
    43.4093       13.30000
    43.4619       10.20000
    43.5146       24.50000
    43.5672       21.40000
    43.6198       24.50000
    43.6724       21.40000
    43.7250       15.30000
    43.7776       16.30000
    43.8302       13.30000
    43.8828       21.40000
    43.9355       24.50000
    43.9881       18.40000
    44.0407       23.50000
    44.0933       21.40000
    44.1459       26.60000
    44.1985       28.60000
    44.2511       40.80000
    44.3037       39.80000
    44.3564       59.20000
    44.4090       83.70000
    44.4616      103.1
    44.5142       81.70000
    44.5668       66.39999
    44.6194       37.80000
    44.6720       43.90000
    44.7247       38.80000
    44.7773       44.90000
    44.8299       33.70000
    44.8825       47.00000
    44.9351       67.40000
    44.9877       96.00000
    45.0403       80.70000
    45.0929       71.50000
    45.1456       43.90000
    45.1982       28.60000
    45.2508       39.80000
    45.3034       22.50000
    45.3560       30.60000
    45.4086       22.50000
    45.4612       24.50000
    45.5139       24.50000
    45.5665       24.50000
    45.6191       26.60000
    45.6717       22.50000
    45.7243       25.50000
    45.7769       21.40000
    45.8295       18.40000
    45.8821       13.30000
    45.9348       20.40000
    45.9874       21.40000
    46.0400       11.20000
    46.0926       25.50000
    46.1452       15.30000
    46.1978       18.40000
    46.2504       22.50000
    46.3030       46.00000
    46.3557       39.80000
    46.4083       60.30000
    46.4609       38.80000
    46.5135       39.80000
    46.5661       29.60000
    46.6187       17.40000
    46.6713       23.50000
    46.7240       18.40000
    46.7766       28.60000
    46.8292       24.50000
    46.8818       22.50000
    46.9344       14.30000
    46.9870       14.30000
    47.0396       20.40000
    47.0922       11.20000
    47.1449       19.40000
    47.1975       23.50000
    47.2501       22.50000
    47.3027       13.30000
    47.3553       12.30000
    47.4079       17.40000
    47.4605       12.30000
    47.5131       20.40000
    47.5658       18.40000
    47.6184       24.50000
    47.6710       20.40000
    47.7236       15.30000
    47.7762       17.40000
    47.8288       30.60000
    47.8814       21.40000
    47.9341       19.40000
    47.9867       25.50000
    48.0393       42.90000
    48.0919       37.80000
    48.1445       24.50000
    48.1971       30.60000
    48.2497       31.70000
    48.3023       16.30000
    48.3550       18.40000
    48.4076       20.40000
    48.4602       18.40000
    48.5128       20.40000
    48.5654       15.30000
    48.6180       24.50000
    48.6706       24.50000
    48.7233       29.60000
    48.7759       25.50000
    48.8285       38.80000
    48.8811       26.60000
    48.9337       36.80000
    48.9863       32.70000
    49.0389       51.10000
    49.0915       69.40000
    49.1442       98.00000
    49.1968      133.8
    49.2494      174.6
    49.3020      202.2
    49.3546      158.3
    49.4072      112.3
    49.4598       85.80000
    49.5124       79.70000
    49.5651       69.40000
    49.6177       69.40000
    49.6703       39.80000
    49.7229       44.90000
    49.7755       28.60000
    49.8281       43.90000
    49.8807       39.80000
    49.9334       44.90000
    49.9860       65.40000
    50.0386       63.30000
    50.0912       89.90000
    50.1438       97.00000
    50.1964      120.5
    50.2490      138.9
    50.3016      183.8
    50.3543      209.4
    50.4069      224.7
    50.4595      226.7
    50.5121      201.2
    50.5647      188.9
    50.6173      172.6
    50.6699      119.5
    50.7225       62.30000
    50.7752       72.50000
    50.8278       57.20000
    50.8804       52.10000
    50.9330       31.70000
    50.9856       31.70000
    51.0382       26.60000
    51.0908       36.80000
    51.1435       24.50000
    51.1961       11.20000
    51.2487       24.50000
    51.3013       24.50000
    51.3539       19.40000
    51.4065       24.50000
    51.4591       21.40000
    51.5117       24.50000
    51.5644       25.50000
    51.6170       28.60000
    51.6696       28.60000
    51.7222       17.40000
    51.7748       25.50000
    51.8274       33.70000
    51.8800       24.50000
    51.9327       31.70000
    51.9853       31.70000
    52.0379       35.70000
    52.0905       49.00000
    52.1431       41.90000
    52.1957       53.10000
    52.2483       75.60000
    52.3009       97.00000
    52.3536      118.5
    52.4062      197.1
    52.4588      319.6
    52.5114      513.7
    52.5640      596.4
    52.6166      501.4
    52.6692      425.9
    52.7218      336
    52.7745      267.6
    52.8271      195.1
    52.8797      170.5
    52.9323      138.9
    52.9849       83.70000
    53.0375       69.40000
    53.0901       67.40000
    53.1428       54.10000
    53.1954       58.20000
    53.2480       36.80000
    53.3006       29.60000
    53.3532       33.70000
    53.4058       30.60000
    53.4584       26.60000
    53.5110       33.70000
    53.5637       22.50000
    53.6163       18.40000
    53.6689       16.30000
    53.7215       19.40000
    53.7741       22.50000
    53.8267       18.40000
    53.8793       32.70000
    53.9319       23.50000
    53.9846       31.70000
    54.0372       22.50000
    54.0898       15.30000
    54.1424       10.20000
    54.1950       23.50000
    54.2476       23.50000
    54.3002       19.40000
    54.3529       21.40000
    54.4055       18.40000
    54.4581       25.50000
    54.5107       30.60000
    54.5633       24.50000
    54.6159       31.70000
    54.6685       31.70000
    54.7211       54.10000
    54.7738       52.10000
    54.8264       96.00000
    54.8790      112.3
    54.9316      188.9
    54.9842      221.6
    55.0368      236.9
    55.0894      183.8
    55.1421      154.2
    55.1947      100.1
    55.2473      113.4
    55.2999      103.1
    55.3525      121.5
    55.4051      182.8
    55.4577      257.4
    55.5103      287
    55.5630      274.7
    55.6156      178.7
    55.6682      148.1
    55.7208       92.90000
    55.7734       71.50000
    55.8260       68.40000
    55.8786       41.90000
    55.9312       43.90000
    55.9839       31.70000
    56.0365       26.60000
    56.0891       31.70000
    56.1417       25.50000
    56.1943       30.60000
    56.2469       42.90000
    56.2995       46.00000
    56.3522       58.20000
    56.4048       58.20000
    56.4574       69.40000
    56.5100      114.4
    56.5626      134.8
    56.6152      192
    56.6678      269.6
    56.7204      264.5
    56.7731      249.2
    56.8257      207.3
    56.8783      170.5
    56.9309      116.4
    56.9835       67.40000
    57.0361       69.40000
    57.0887       37.80000
    57.1413       36.80000
    57.1940       42.90000
    57.2466       31.70000
    57.2992       40.80000
    57.3518       27.60000
    57.4044       33.70000
    57.4570       36.80000
    57.5096       47.00000
    57.5623       53.10000
    57.6149       57.20000
    57.6675       41.90000
    57.7201       44.90000
    57.7727       32.70000
    57.8253       18.40000
    57.8779       33.70000
    57.9305       35.70000
    57.9832       29.60000
    58.0358       37.80000
    58.0884       60.30000
    58.1410       64.30000
    58.1936       87.80000
    58.2462      109.3
    58.2988      160.3
    58.3515      174.6
    58.4041      152.2
    58.4567      142
    58.5093      104.2
    58.5619       65.40000
    58.6145       51.10000
    58.6671       41.90000
    58.7197       36.80000
    58.7724       32.70000
    58.8250       25.50000
    58.8776       21.40000
    58.9302       17.40000
    58.9828       24.50000
    59.0354       23.50000
    59.0880       24.50000
    59.1406       19.40000
    59.1933       20.40000
    59.2459       26.60000
    59.2985       17.40000
    59.3511       16.30000
    59.4037       22.50000
    59.4563       15.30000
    59.5089       17.40000
    59.5616       15.30000
    59.6142       28.60000
    59.6668       21.40000
    59.7194       20.40000
    59.7720       27.60000
    59.8246       24.50000
    59.8772       13.30000
    59.9298       22.50000
    59.9825       18.40000
    60.0351       19.40000
    60.0877       26.60000
    60.1403       23.50000
    60.1929       20.40000
    60.2455       30.60000
    60.2981       13.30000
    60.3507       22.50000
    60.4034       17.40000
    60.4560       15.30000
    60.5086       14.30000
    60.5612       14.30000
    60.6138       13.30000
    60.6664       21.40000
    60.7190       20.40000
    60.7717       14.30000
    60.8243       26.60000
    60.8769       21.40000
    60.9295       20.40000
    60.9821       21.40000
    61.0347       20.40000
    61.0873       20.40000
    61.1399       26.60000
    61.1926       27.60000
    61.2452       39.80000
    61.2978       54.10000
    61.3504       46.00000
    61.4030       42.90000
    61.4556       71.50000
    61.5082       71.50000
    61.5609      124.6
    61.6135      132.8
    61.6661      176.7
    61.7187      260.4
    61.7713      287
    61.8239      368.7
    61.8765      356.4
    61.9291      388.1
    61.9818      297.2
    62.0344      293.1
    62.0870      283.9
    62.1396      276.8
    62.1922      231.8
    62.2448      153.2
    62.2974      128.7
    62.3500       94.00000
    62.4027       80.70000
    62.4553       71.50000
    62.5079       49.00000
    62.5605       34.70000
    62.6131       32.70000
    62.6657       23.50000
    62.7183       36.80000
    62.7710       17.40000
    62.8236       27.60000
    62.8762       23.50000
    62.9288       26.60000
    62.9814       21.40000
    63.0340       18.40000
    63.0866       21.40000
    63.1392       18.40000
    63.1919       22.50000
    63.2445       21.40000
    63.2971       17.40000
    63.3497       16.30000
    63.4023       16.30000
    63.4549       23.50000
    63.5075       13.30000
    63.5601       17.40000
    63.6128       21.40000
    63.6654       27.60000
    63.7180       13.30000
    63.7706       29.60000
    63.8232       21.40000
    63.8758       33.70000
    63.9284       41.90000
    63.9811       59.20000
    64.0337       52.10000
    64.0863       41.90000
    64.1389       46.00000
    64.1915       44.90000
    64.2441       23.50000
    64.2967       27.60000
    64.3493       36.80000
    64.4020       31.70000
    64.4546       17.40000
    64.5072       25.50000
    64.5598       19.40000
    64.6124       24.50000
    64.6650       27.60000
    64.7176       29.60000
    64.7703       27.60000
    64.8229       24.50000
    64.8755       24.50000
    64.9281       17.40000
    64.9807       23.50000
    65.0333       16.30000
    65.0859       21.40000
    65.1385       18.40000
    65.1912       15.30000
    65.2438       20.40000
    65.2964       21.40000
    65.3490       32.70000
    65.4016       23.50000
    65.4542       33.70000
    65.5068       34.70000
    65.5594       18.40000
    65.6121       34.70000
    65.6647       30.60000
    65.7173       35.70000
    65.7699       29.60000
    65.8225       32.70000
    65.8751       35.70000
    65.9277       65.40000
    65.9804       49.00000
    66.0330       59.20000
    66.0856       58.20000
    66.1382       54.10000
    66.1908       59.20000
    66.2434       64.30000
    66.2960       71.50000
    66.3486      115.4
    66.4013      105.2
    66.4539      107.2
    66.5065       61.30000
    66.5591       59.20000
    66.6117       51.10000
    66.6643       31.70000
    66.7169       39.80000
    66.7695       24.50000
    66.8222       24.50000
    66.8748       27.60000
    66.9274       31.70000
    66.9800       13.30000
    67.0326       24.50000
    67.0852       32.70000
    67.1378       33.70000
    67.1905       37.80000
    67.2431       44.90000
    67.2957       53.10000
    67.3483       51.10000
    67.4009       89.90000
    67.4535       77.60001
    67.5061       95.00000
    67.5587       69.40000
    67.6114       91.90000
    67.6640       73.50000
    67.7166       49.00000
    67.7692       38.80000
    67.8218       29.60000
    67.8744       27.60000
    67.9270       34.70000
    67.9797       37.80000
    68.0323       33.70000
    68.0849       34.70000
    68.1375       38.80000
    68.1901       39.80000
    68.2427       39.80000
    68.2953       38.80000
    68.3479       50.00000
    68.4006       36.80000
    68.4532       35.70000
    68.5058       39.80000
    68.5584       31.70000
    68.6110       18.40000
    68.6636       26.60000
    68.7162       17.40000
    68.7688       20.40000
    68.8215       17.40000
    68.8741       20.40000
    68.9267       29.60000
    68.9793       29.60000
    69.0319       25.50000
    69.0845       15.30000
    69.1371       24.50000
    69.1898       23.50000
    69.2424       19.40000
    69.2950       38.80000
    69.3476       43.90000
    69.4002       55.10000
    69.4528       50.00000
    69.5054       63.30000
    69.5580       44.90000
    69.6107       36.80000
    69.6633       28.60000
    69.7159       33.70000
    69.7685       35.70000
    69.8211       40.80000
    69.8737       39.80000
    69.9263       62.30000
    69.9789       55.10000
    70.0316       90.90000
    70.0842      111.3
    70.1368      128.7
    70.1894      150.1
    70.2420      142
    70.2946      121.5
    70.3472      103.1
    70.3999       79.70000
    70.4525       59.20000
    70.5051       43.90000
    70.5577       29.60000
    70.6103       38.80000
    70.6629       38.80000
    70.7155       24.50000
    70.7681       28.60000
    70.8208       35.70000
    70.8734       18.40000
    70.9260       15.30000
    70.9786       21.40000
    71.0312       25.50000
    71.0838       17.40000
    71.1364       29.60000
    71.1891       24.50000
    71.2417       29.60000
    71.2943       35.70000
    71.3469       59.20000
    71.3995       52.10000
    71.4521       52.10000
    71.5047       53.10000
    71.5573       55.10000
    71.6100       47.00000
    71.6626       41.90000
    71.7152       38.80000
    71.7678       56.20000
    71.8204       41.90000
    71.8730       49.00000
    71.9256       53.10000
    71.9782       60.30000
    72.0309       64.30000
    72.0835       76.60000
    72.1361       87.80000
    72.1887      108.3
    72.2413      105.2
    72.2939      126.6
    72.3465      144
    72.3992      108.3
    72.4518      103.1
    72.5044       85.80000
    72.5570       68.40000
    72.6096       54.10000
    72.6622       56.20000
    72.7148       41.90000
    72.7674       37.80000
    72.8201       30.60000
    72.8727       33.70000
    72.9253       25.50000
    72.9779       24.50000
    73.0305       27.60000
    73.0831       21.40000
    73.1357       26.60000
    73.1883       23.50000
    73.2410       24.50000
    73.2936       25.50000
    73.3462       31.70000
    73.3988       37.80000
    73.4514       41.90000
    73.5040       53.10000
    73.5566       60.30000
    73.6093       47.00000
    73.6619       42.90000
    73.7145       36.80000
    73.7671       23.50000
    73.8197       23.50000
    73.8723       12.30000
    73.9249       25.50000
    73.9775       30.60000
    74.0302       16.30000
    74.0828       36.80000
    74.1354       35.70000
    74.1880       43.90000
    74.2406       56.20000
    74.2932       69.40000
    74.3458       81.70000
    74.3985       99.10000
    74.4511      107.2
    74.5037       62.30000
    74.5563       64.30000
    74.6089       57.20000
    74.6615       44.90000
    74.7141       43.90000
    74.7667       34.70000
    74.8194       33.70000
    74.8720       27.60000
    74.9246       21.40000
    74.9772       32.70000
    75.0298       23.50000
    75.0824       35.70000
    75.1350       31.70000
    75.1876       32.70000
    75.2403       32.70000
    75.2929       24.50000
    75.3455       31.70000
    75.3981       32.70000
    75.4507       20.40000
    75.5033       36.80000
    75.5559       28.60000
    75.6086       38.80000
    75.6612       47.00000
    75.7138       51.10000
    75.7664       36.80000
    75.8190       31.70000
    75.8716       36.80000
    75.9242       30.60000
    75.9768       42.90000
    76.0295       37.80000
    76.0821       33.70000
    76.1347       30.60000
    76.1873       39.80000
    76.2399       28.60000
    76.2925       19.40000
    76.3451       33.70000
    76.3977       17.40000
    76.4504       27.60000
    76.5030       22.50000
    76.5556       18.40000
    76.6082       25.50000
    76.6608       12.30000
    76.7134       14.30000
    76.7660       19.40000
    76.8187       14.30000
    76.8713       16.30000
    76.9239       11.20000
    76.9765       12.30000
    77.0291       23.50000
    77.0817       18.40000
    77.1343       22.50000
    77.1869       18.40000
    77.2396       22.50000
    77.2922       33.70000
    77.3448       28.60000
    77.3974       22.50000
    77.4500       37.80000
    77.5026       26.60000
    77.5552       28.60000
    77.6079       42.90000
    77.6605       50.00000
    77.7131       47.00000
    77.7657       69.40000
    77.8183       79.70000
    77.8709       79.70000
    77.9235       68.40000
    77.9761       79.70000
    78.0288       59.20000
    78.0814       54.10000
    78.1340       50.00000
    78.1866       44.90000
    78.2392       32.70000
    78.2918       38.80000
    78.3444       35.70000
    78.3970       25.50000
    78.4497       19.40000
    78.5023       24.50000
    78.5549       21.40000
    78.6075       29.60000
    78.6601       13.30000
    78.7127       12.30000
    78.7653       17.40000
    78.8180       14.30000
    78.8706        9.20000
    78.9232       13.30000
    78.9758       25.50000
    79.0284       21.40000
    79.0810       11.20000
    79.1336       18.40000
    79.1862       18.40000
    79.2389       16.30000
    79.2915       14.30000
    79.3441       15.30000
    79.3967       13.30000
    79.4493       17.40000
    79.5019       10.20000
    79.5545       15.30000
    79.6071       18.40000
    79.6598       23.50000
    79.7124       21.40000
    79.7650       15.30000
    79.8176       21.40000
    79.8702       15.30000
    79.9228       24.50000
    79.9754       14.30000
    80.0070       28.60000